File: Battery Data/Li-Li Symmetric Cell/KBrTest_6_10_24/KBrTest.DTA
EXPLAIN
TAG	CHRONOP
TITLE	LABEL	Chronopotentiometry Scan	Test &Identifier
DATE	LABEL	6/10/2024	Date
TIME	LABEL	14:39:31	Time
NOTES	NOTES	1	&Notes...

PSTAT	PSTAT	IFC1010-39159	Potentiostat
IPRESTEP	QUANT	0.00000E+000	Pre-step Current (A)
TPRESTEP	QUANT	1.00000E+000	Pre-step Delay &Time (s)
ISTEP1	QUANT	5.00000E-005	Step 1 Current (A)
TSTEP1	QUANT	2.00000E+003	Step 1 Time (s)
ISTEP2	QUANT	0.00000E+000	Step 2 Current (A)
TSTEP2	QUANT	2.00000E+003	Step 2 Time (s)
SAMPLETIME	QUANT	1.00000E+000	Sa&mple Period (s)
VLIMITLOWER	QUANT	-1.00000E+002	Lower Limit &V (V)
VLIMITUPPER	QUANT	1.00000E+002	Upper Limit &V (V)
DECIMATE	TOGGLE	F	Decimate
AREA	QUANT	9.00000E-004	Electrode &Area (cm^2)
ELECTRODETYPE	SELECTOR	0	Electrode Type
STRIPPING	TOGGLE	F	Used for Stripping
EQDELAY	QUANT	0.00000E+000	Equil. &Time (s)
CONDIT	TWOPARAM	F	1.50000E+001	0.00000E+000	Conditionin&g	Time(s)	E(V)
DELAY	TWOPARAM	F	3.00000E+002	1.00000E-001	Init. De&lay	Time(s)	Stab.(mV/s)
SAMPLINGMODE	SELECTOR	1	Sampling &Mode
EOC	QUANT	0	Open Circuit (V)
PSTATMODEL	IQUANT	64	Pstat Model
PSTATSECTION	LABEL	IFC1010-39159	Pstat Section
PSTATSERIALNO	LABEL	39159	Pstat Serial Number
CTRLMODE	IQUANT	0	Control Mode
ELECTROMETER	IQUANT	0	RE=0 or CS=1
IESTAB	IQUANT	0	I/E Stability
CASPEED	IQUANT	4	Control Amp Speed
CONVENTION	IQUANT	1	Current Convention
ICHRANGE	IQUANT	2	Ich Range
ICHRANGEMODE	TOGGLE	T	Ich Auto Range
ICHOFFSETENABLE	TOGGLE	F	Ich Offset Enable
ICHOFFSET	QUANT	0	Ich Offset (V)
ICHFILTER	IQUANT	4	Ich Filter
VCHRANGE	IQUANT	3	Vch Range
VCHRANGEMODE	TOGGLE	T	Vch Auto Range
VCHOFFSETENABLE	TOGGLE	F	Vch Offset Enable
VCHOFFSET	QUANT	0	Vch Offset (V)
VCHFILTER	IQUANT	4	Vch Filter
IERANGELOWERLIMIT	IQUANT	4	I/E Range Lower Limit
IERANGEMODE	TOGGLE	F	I/E AutoRange
IERANGE	IQUANT	8	I/E Range
ACHSELECT	IQUANT	0	Ach Select
ACHRANGE	IQUANT	2	Ach Range
ACHOFFSETENABLE	TOGGLE	F	Ach Offset Enable
ACHOFFSET	QUANT	0	Ach Offset (V)
ACHFILTER	IQUANT	1	Ach Filter
SENSECABLEID	IQUANT	14	Sense Cable ID
PWRCABLEID	IQUANT	14	Power Cable ID
DCCALDATE	LABEL	4/24/2024	DC Calibration Date
ACCALDATE	LABEL	3/22/2024	AC Calibration Date
FRAMEWORKVERSION	LABEL	7.10.3	Framework Version
INSTRUMENTVERSION	LABEL	4.91	Instrument Version
COMMVERSION	LABEL	3.10	Communications Version
CPUPLDVERSION	LABEL	2.50	CPU PLD Version
CTRLPLDVERSION	LABEL	0.00	CTRL PLD Version
PSTATPLDVERSION	LABEL	0.00	PSTAT PLD Version
CURVE	TABLE	4001
	Pt	T	Vf	Im	Vu	Sig	Ach	IERange	Over	Temp
	#	s	V vs. Ref.	A	V	V	V	#	bits	deg C
	0	0	7.35026E-001	-1.05255E-009	0.00000E+000	-5.32866E-005	0.00000E+000	8	...........	1564.68
	8	8	4.88061E+000	5.00102E-005	0.00000E+000	1.49916E+000	0.00000E+000	8	..ch.......	1563.73
	16	16	5.10501E+000	5.00125E-005	0.00000E+000	1.49916E+000	0.00000E+000	8	..ch.......	1563.73
	24	24	1.31166E+001	3.17576E-005	0.00000E+000	1.49916E+000	0.00000E+000	8	.ech.....v.	1564.11
	32	32	1.31166E+001	1.58038E-005	0.00000E+000	1.49916E+000	0.00000E+000	8	.ech.....v.	1563.83
	40	40	6.20456E+000	5.00107E-005	0.00000E+000	1.49916E+000	0.00000E+000	8	..ch.......	1564.02
	48	48	1.31166E+001	7.39812E-006	0.00000E+000	1.49916E+000	0.00000E+000	8	.ech.....v.	1563.83
	56	56	1.19353E+001	4.91480E-005	0.00000E+000	1.49916E+000	0.00000E+000	8	.ech.....v.	1564.02
	64	64	6.90638E+000	5.00080E-005	0.00000E+000	1.49916E+000	0.00000E+000	8	..ch.......	1564.02
	72	72	6.26427E+000	5.00090E-005	0.00000E+000	1.49916E+000	0.00000E+000	8	..ch.......	1563.92
	80	80	6.23494E+000	5.00082E-005	0.00000E+000	1.49916E+000	0.00000E+000	8	..ch.......	1564.02
	88	88	1.31166E+001	4.96525E-005	0.00000E+000	1.49916E+000	0.00000E+000	8	.ech.....v.	1564.21
	96	96	9.79055E+000	5.02081E-005	0.00000E+000	1.49916E+000	0.00000E+000	8	..ch.......	1564.11
	104	104	1.31166E+001	7.63830E-006	0.00000E+000	1.49916E+000	0.00000E+000	8	.ech.....v.	1563.92
	112	112	1.31166E+001	3.15906E-005	0.00000E+000	1.49916E+000	0.00000E+000	8	.ech.....v.	1564.11
	120	120	8.53675E+000	4.85754E-005	0.00000E+000	1.49916E+000	0.00000E+000	8	.echih.....	1564.02
	128	128	6.45063E+000	5.00080E-005	0.00000E+000	1.49916E+000	0.00000E+000	8	..ch.......	1564.30
	136	136	6.35841E+000	5.00120E-005	0.00000E+000	1.49916E+000	0.00000E+000	8	..ch.......	1564.11
	144	144	6.88192E+000	5.00105E-005	0.00000E+000	1.49916E+000	0.00000E+000	8	..ch.......	1564.30
	152	152	6.85065E+000	5.00106E-005	0.00000E+000	1.49916E+000	0.00000E+000	8	..ch.......	1564.02
	160	160	6.87617E+000	5.00921E-005	0.00000E+000	1.49916E+000	0.00000E+000	8	..ch.......	1564.11
	168	168	6.58109E+000	5.00527E-005	0.00000E+000	1.49916E+000	0.00000E+000	8	..ch.......	1564.11
	176	176	6.48085E+000	5.00115E-005	0.00000E+000	1.49916E+000	0.00000E+000	8	..ch.......	1564.11
	184	184	6.07194E+000	5.01141E-005	0.00000E+000	1.49916E+000	0.00000E+000	8	..ch.......	1564.11
	192	192	6.21583E+000	5.01355E-005	0.00000E+000	1.49916E+000	0.00000E+000	8	..ch.......	1564.40
	200	200	6.28933E+000	5.00115E-005	0.00000E+000	1.49916E+000	0.00000E+000	8	..ch.......	1564.02
	208	208	6.80369E+000	5.00105E-005	0.00000E+000	1.49916E+000	0.00000E+000	8	..ch.......	1564.02
	216	216	6.80588E+000	5.00113E-005	0.00000E+000	1.49916E+000	0.00000E+000	8	..ch.......	1564.11
	224	224	6.89873E+000	5.00117E-005	0.00000E+000	1.49916E+000	0.00000E+000	8	..ch.......	1564.02
	232	232	7.01271E+000	5.00106E-005	0.00000E+000	1.49916E+000	0.00000E+000	8	..ch.......	1564.30
	240	240	7.20387E+000	5.00107E-005	0.00000E+000	1.49916E+000	0.00000E+000	8	..ch.......	1564.02
	248	248	6.84865E+000	5.00107E-005	0.00000E+000	1.49916E+000	0.00000E+000	8	..ch.......	1564.30
	256	256	6.62320E+000	5.00901E-005	0.00000E+000	1.49916E+000	0.00000E+000	8	..ch.......	1564.02
	264	264	6.73465E+000	5.00129E-005	0.00000E+000	1.49916E+000	0.00000E+000	8	..ch.......	1564.40
	272	272	6.57557E+000	5.01314E-005	0.00000E+000	1.49916E+000	0.00000E+000	8	..ch.......	1564.40
	280	280	6.69546E+000	5.00112E-005	0.00000E+000	1.49916E+000	0.00000E+000	8	..ch.......	1564.11
	288	288	7.06018E+000	5.00138E-005	0.00000E+000	1.49916E+000	0.00000E+000	8	..ch.......	1564.11
	296	296	7.29158E+000	5.00115E-005	0.00000E+000	1.49916E+000	0.00000E+000	8	..ch.......	1564.21
	304	304	7.54054E+000	5.00128E-005	0.00000E+000	1.49916E+000	0.00000E+000	8	..ch.......	1564.02
	312	312	6.58283E+000	5.00124E-005	0.00000E+000	1.49916E+000	0.00000E+000	8	..ch.......	1564.02
	320	320	6.65899E+000	5.00115E-005	0.00000E+000	1.49916E+000	0.00000E+000	8	..ch.......	1564.02
	328	328	6.99135E+000	5.00117E-005	0.00000E+000	1.49916E+000	0.00000E+000	8	..ch.......	1564.02
	336	336	7.14805E+000	5.01483E-005	0.00000E+000	1.49916E+000	0.00000E+000	8	..ch.......	1564.11
	344	344	7.25419E+000	5.01364E-005	0.00000E+000	1.49916E+000	0.00000E+000	8	..ch.......	1564.11
	352	352	7.21479E+000	5.01407E-005	0.00000E+000	1.49916E+000	0.00000E+000	8	..ch.......	1564.21
	360	360	7.19705E+000	5.01409E-005	0.00000E+000	1.49916E+000	0.00000E+000	8	..ch.......	1564.40
	368	368	7.35827E+000	5.01375E-005	0.00000E+000	1.49916E+000	0.00000E+000	8	..ch.......	1564.30
	376	376	7.00799E+000	5.01440E-005	0.00000E+000	1.49916E+000	0.00000E+000	8	..ch.......	1564.40
	384	384	7.05239E+000	5.01377E-005	0.00000E+000	1.49916E+000	0.00000E+000	8	..ch.......	1564.11
	392	392	7.12542E+000	5.01437E-005	0.00000E+000	1.49916E+000	0.00000E+000	8	..ch.......	1564.11
	400	400	7.31257E+000	5.01204E-005	0.00000E+000	1.49916E+000	0.00000E+000	8	..ch.......	1564.11
	408	408	7.54499E+000	5.01403E-005	0.00000E+000	1.49916E+000	0.00000E+000	8	..ch.......	1564.11
	416	416	7.30746E+000	5.00113E-005	0.00000E+000	1.49916E+000	0.00000E+000	8	..ch.......	1564.21
	424	424	7.25074E+000	5.01124E-005	0.00000E+000	1.49916E+000	0.00000E+000	8	..ch.......	1564.40
	432	432	7.30344E+000	5.00109E-005	0.00000E+000	1.49916E+000	0.00000E+000	8	..ch.......	1564.21
	440	440	7.23898E+000	5.00114E-005	0.00000E+000	1.49916E+000	0.00000E+000	8	..ch.......	1564.02
	448	448	7.20489E+000	5.00104E-005	0.00000E+000	1.49916E+000	0.00000E+000	8	..ch.......	1564.11
	456	456	7.13006E+000	5.01050E-005	0.00000E+000	1.49916E+000	0.00000E+000	8	..ch.......	1564.11
	464	464	6.95748E+000	5.01113E-005	0.00000E+000	1.49916E+000	0.00000E+000	8	..ch.......	1564.11
	472	472	7.05908E+000	5.01257E-005	0.00000E+000	1.49916E+000	0.00000E+000	8	..ch.......	1564.11
	480	480	7.23961E+000	5.01064E-005	0.00000E+000	1.49916E+000	0.00000E+000	8	..ch.......	1564.30
	488	488	7.38277E+000	5.00851E-005	0.00000E+000	1.49916E+000	0.00000E+000	8	..ch.......	1564.11
	496	496	7.40630E+000	5.00857E-005	0.00000E+000	1.49916E+000	0.00000E+000	8	..ch.......	1564.21
	504	504	7.46847E+000	5.00112E-005	0.00000E+000	1.49916E+000	0.00000E+000	8	..ch.......	1564.11
	512	512	7.55646E+000	5.00111E-005	0.00000E+000	1.49916E+000	0.00000E+000	8	..ch.......	1564.30
	520	520	7.62861E+000	5.00110E-005	0.00000E+000	1.49916E+000	0.00000E+000	8	..ch.......	1564.30
	528	528	7.69903E+000	5.00105E-005	0.00000E+000	1.49916E+000	0.00000E+000	8	..ch.......	1564.40
	536	536	7.81730E+000	5.00604E-005	0.00000E+000	1.49916E+000	0.00000E+000	8	..ch.......	1564.40
	544	544	7.82635E+000	5.00354E-005	0.00000E+000	1.49916E+000	0.00000E+000	8	..ch.......	1564.40
	552	552	7.38000E+000	5.00983E-005	0.00000E+000	1.49916E+000	0.00000E+000	8	..ch.......	1564.11
	560	560	7.30299E+000	5.00108E-005	0.00000E+000	1.49916E+000	0.00000E+000	8	..ch.......	1564.02
	568	568	7.30439E+000	5.00122E-005	0.00000E+000	1.49916E+000	0.00000E+000	8	..ch.......	1564.02
	576	576	7.59151E+000	5.00130E-005	0.00000E+000	1.49916E+000	0.00000E+000	8	..ch.......	1564.11
	584	584	7.73020E+000	5.00132E-005	0.00000E+000	1.49916E+000	0.00000E+000	8	..ch.......	1564.11
	592	592	7.78162E+000	5.00129E-005	0.00000E+000	1.49916E+000	0.00000E+000	8	..ch.......	1564.21
	600	600	7.88181E+000	5.00125E-005	0.00000E+000	1.49916E+000	0.00000E+000	8	..ch.......	1564.11
	608	608	7.97572E+000	5.00134E-005	0.00000E+000	1.49916E+000	0.00000E+000	8	..ch.......	1564.02
	616	616	8.07385E+000	5.00105E-005	0.00000E+000	1.49916E+000	0.00000E+000	8	..ch.......	1564.21
	624	624	8.03507E+000	5.00122E-005	0.00000E+000	1.49916E+000	0.00000E+000	8	..ch.......	1564.02
	632	632	7.92624E+000	5.00134E-005	0.00000E+000	1.49916E+000	0.00000E+000	8	..ch.......	1564.21
	640	640	8.00078E+000	5.00146E-005	0.00000E+000	1.49916E+000	0.00000E+000	8	..ch.......	1564.11
	648	648	8.07608E+000	5.00111E-005	0.00000E+000	1.49916E+000	0.00000E+000	8	..ch.......	1564.02
	656	656	8.20206E+000	5.00104E-005	0.00000E+000	1.49916E+000	0.00000E+000	8	..ch.......	1564.02
	664	664	8.21655E+000	5.00120E-005	0.00000E+000	1.49916E+000	0.00000E+000	8	..ch.......	1564.11
	672	672	8.35731E+000	5.00108E-005	0.00000E+000	1.49916E+000	0.00000E+000	8	..ch.......	1564.02
	680	680	8.47790E+000	5.00117E-005	0.00000E+000	1.49916E+000	0.00000E+000	8	..ch.......	1564.02
	688	688	8.36712E+000	5.00112E-005	0.00000E+000	1.49916E+000	0.00000E+000	8	..ch.......	1564.21
	696	696	8.43415E+000	5.00131E-005	0.00000E+000	1.49916E+000	0.00000E+000	8	..ch.......	1564.40
	704	704	8.14011E+000	5.00130E-005	0.00000E+000	1.49916E+000	0.00000E+000	8	..ch.......	1564.02
	712	712	7.69965E+000	5.00113E-005	0.00000E+000	1.49916E+000	0.00000E+000	8	..ch.......	1564.30
	720	720	7.76386E+000	5.01282E-005	0.00000E+000	1.49916E+000	0.00000E+000	8	..ch.......	1564.11
	728	728	7.89445E+000	5.01178E-005	0.00000E+000	1.49916E+000	0.00000E+000	8	..ch.......	1564.49
	736	736	8.04987E+000	5.01387E-005	0.00000E+000	1.49916E+000	0.00000E+000	8	..ch.......	1564.11
	744	744	8.16615E+000	5.01140E-005	0.00000E+000	1.49916E+000	0.00000E+000	8	..ch.......	1564.21
	752	752	8.23111E+000	5.00106E-005	0.00000E+000	1.49916E+000	0.00000E+000	8	..ch.......	1564.40
	760	760	8.41027E+000	5.00102E-005	0.00000E+000	1.49916E+000	0.00000E+000	8	..ch.......	1564.11
	768	768	8.35138E+000	5.00111E-005	0.00000E+000	1.49916E+000	0.00000E+000	8	..ch.......	1564.30
	776	776	8.04184E+000	5.00106E-005	0.00000E+000	1.49916E+000	0.00000E+000	8	..ch.......	1564.02
	784	784	8.03722E+000	5.00107E-005	0.00000E+000	1.49916E+000	0.00000E+000	8	..ch.......	1564.11
	792	792	8.13586E+000	5.00104E-005	0.00000E+000	1.49916E+000	0.00000E+000	8	..ch.......	1564.02
	800	800	8.30320E+000	5.00109E-005	0.00000E+000	1.49916E+000	0.00000E+000	8	..ch.......	1564.11
	808	808	8.42767E+000	5.01207E-005	0.00000E+000	1.49916E+000	0.00000E+000	8	..ch.......	1564.30
	816	816	8.45082E+000	5.00116E-005	0.00000E+000	1.49916E+000	0.00000E+000	8	..ch.......	1564.30
	824	824	8.66802E+000	5.00136E-005	0.00000E+000	1.49916E+000	0.00000E+000	8	..ch.......	1564.30
	832	832	8.66455E+000	5.00115E-005	0.00000E+000	1.49916E+000	0.00000E+000	8	..ch.......	1564.02
	840	840	8.73738E+000	5.00120E-005	0.00000E+000	1.49916E+000	0.00000E+000	8	..ch.......	1564.49
	848	848	8.97642E+000	5.00118E-005	0.00000E+000	1.49916E+000	0.00000E+000	8	..ch.......	1564.11
	856	856	8.96038E+000	5.00117E-005	0.00000E+000	1.49916E+000	0.00000E+000	8	..ch.......	1564.11
	864	864	8.77283E+000	5.00120E-005	0.00000E+000	1.49916E+000	0.00000E+000	8	..ch.......	1564.49
	872	872	8.82020E+000	5.00105E-005	0.00000E+000	1.49916E+000	0.00000E+000	8	..ch.......	1564.11
	880	880	8.80243E+000	5.00112E-005	0.00000E+000	1.49916E+000	0.00000E+000	8	..ch.......	1564.11
	888	888	8.99495E+000	5.00118E-005	0.00000E+000	1.49916E+000	0.00000E+000	8	..ch.......	1564.11
	896	896	9.13515E+000	5.00109E-005	0.00000E+000	1.49916E+000	0.00000E+000	8	..ch.......	1564.11
	904	904	9.13596E+000	5.00117E-005	0.00000E+000	1.49916E+000	0.00000E+000	8	..ch.......	1564.11
	912	912	9.30490E+000	5.00139E-005	0.00000E+000	1.49916E+000	0.00000E+000	8	..ch.......	1564.30
	920	920	9.43354E+000	5.00117E-005	0.00000E+000	1.49916E+000	0.00000E+000	8	..ch.......	1564.40
	928	928	9.34437E+000	5.00125E-005	0.00000E+000	1.49916E+000	0.00000E+000	8	..ch.......	1564.30
	936	936	9.07780E+000	5.00128E-005	0.00000E+000	1.49916E+000	0.00000E+000	8	..ch.......	1564.21
	944	944	9.00849E+000	5.00125E-005	0.00000E+000	1.49916E+000	0.00000E+000	8	..ch.......	1564.21
	952	952	9.19965E+000	5.00115E-005	0.00000E+000	1.49916E+000	0.00000E+000	8	..ch.......	1564.11
	960	960	9.28246E+000	5.00135E-005	0.00000E+000	1.49916E+000	0.00000E+000	8	..ch.......	1564.21
	968	968	9.53308E+000	5.00843E-005	0.00000E+000	1.49916E+000	0.00000E+000	8	..ch.......	1564.21
	976	976	9.02561E+000	5.00120E-005	0.00000E+000	1.49916E+000	0.00000E+000	8	..ch.......	1564.21
	984	984	8.15252E+000	5.00127E-005	0.00000E+000	1.49916E+000	0.00000E+000	8	..ch.......	1564.49
	992	992	8.41537E+000	5.00113E-005	0.00000E+000	1.49916E+000	0.00000E+000	8	..ch.......	1564.11
	1000	1000	8.49944E+000	5.00106E-005	0.00000E+000	1.49916E+000	0.00000E+000	8	..ch.......	1564.30
	1008	1008	8.58685E+000	5.00106E-005	0.00000E+000	1.49916E+000	0.00000E+000	8	..ch.......	1564.11
	1016	1016	8.70473E+000	5.00107E-005	0.00000E+000	1.49916E+000	0.00000E+000	8	..ch.......	1564.40
	1024	1024	8.83344E+000	5.00107E-005	0.00000E+000	1.49916E+000	0.00000E+000	8	..ch.......	1564.21
	1032	1032	8.93519E+000	5.00107E-005	0.00000E+000	1.49916E+000	0.00000E+000	8	..ch.......	1564.21
	1040	1040	9.00282E+000	5.00113E-005	0.00000E+000	1.49916E+000	0.00000E+000	8	..ch.......	1564.11
	1048	1048	9.01327E+000	5.00122E-005	0.00000E+000	1.49916E+000	0.00000E+000	8	..ch.......	1564.11
	1056	1056	8.75317E+000	5.00112E-005	0.00000E+000	1.49916E+000	0.00000E+000	8	..ch.......	1564.11
	1064	1064	8.65009E+000	5.00121E-005	0.00000E+000	1.49916E+000	0.00000E+000	8	..ch.......	1564.30
	1072	1072	8.79260E+000	5.00103E-005	0.00000E+000	1.49916E+000	0.00000E+000	8	..ch.......	1564.02
	1080	1080	8.83522E+000	5.00113E-005	0.00000E+000	1.49916E+000	0.00000E+000	8	..ch.......	1564.40
	1088	1088	9.00976E+000	5.00109E-005	0.00000E+000	1.49916E+000	0.00000E+000	8	..ch.......	1564.11
	1096	1096	9.12129E+000	5.00105E-005	0.00000E+000	1.49916E+000	0.00000E+000	8	..ch.......	1564.11
	1104	1104	9.17733E+000	5.00107E-005	0.00000E+000	1.49916E+000	0.00000E+000	8	..ch.......	1564.11
	1112	1112	9.25222E+000	5.00104E-005	0.00000E+000	1.49916E+000	0.00000E+000	8	..ch.......	1564.11
	1120	1120	9.30361E+000	5.00112E-005	0.00000E+000	1.49916E+000	0.00000E+000	8	..ch.......	1564.30
	1128	1128	9.41717E+000	5.00127E-005	0.00000E+000	1.49916E+000	0.00000E+000	8	..ch.......	1564.21
	1136	1136	9.48364E+000	5.00118E-005	0.00000E+000	1.49916E+000	0.00000E+000	8	..ch.......	1564.11
	1144	1144	9.65882E+000	5.00110E-005	0.00000E+000	1.49916E+000	0.00000E+000	8	..ch.......	1564.11
	1152	1152	9.60573E+000	5.00126E-005	0.00000E+000	1.49916E+000	0.00000E+000	8	..ch.......	1564.11
	1160	1160	9.47207E+000	5.00119E-005	0.00000E+000	1.49916E+000	0.00000E+000	8	..ch.......	1564.21
	1168	1168	9.53067E+000	5.00121E-005	0.00000E+000	1.49916E+000	0.00000E+000	8	..ch.......	1564.21
	1176	1176	9.58410E+000	5.00124E-005	0.00000E+000	1.49916E+000	0.00000E+000	8	..ch.......	1564.40
	1184	1184	9.70475E+000	5.00109E-005	0.00000E+000	1.49916E+000	0.00000E+000	8	..ch.......	1564.40
	1192	1192	9.72814E+000	5.00107E-005	0.00000E+000	1.49916E+000	0.00000E+000	8	..ch.......	1564.21
	1200	1200	9.78860E+000	5.00110E-005	0.00000E+000	1.49916E+000	0.00000E+000	8	..ch.......	1564.40
	1208	1208	9.84413E+000	5.00110E-005	0.00000E+000	1.49916E+000	0.00000E+000	8	..ch.......	1564.11
	1216	1216	9.78954E+000	5.00117E-005	0.00000E+000	1.49916E+000	0.00000E+000	8	..ch.......	1564.21
	1224	1224	9.22683E+000	5.00134E-005	0.00000E+000	1.49916E+000	0.00000E+000	8	..ch.......	1564.21
	1232	1232	9.52507E+000	5.00119E-005	0.00000E+000	1.49916E+000	0.00000E+000	8	..ch.......	1564.11
	1240	1240	9.45369E+000	5.00121E-005	0.00000E+000	1.49916E+000	0.00000E+000	8	..ch.......	1564.11
	1248	1248	9.49690E+000	5.00373E-005	0.00000E+000	1.49916E+000	0.00000E+000	8	..ch.......	1564.49
	1256	1256	9.54136E+000	5.01164E-005	0.00000E+000	1.49916E+000	0.00000E+000	8	..ch.......	1564.21
	1264	1264	9.65865E+000	5.00134E-005	0.00000E+000	1.49916E+000	0.00000E+000	8	..ch.......	1564.30
	1272	1272	9.92334E+000	5.00132E-005	0.00000E+000	1.49916E+000	0.00000E+000	8	..ch.......	1564.11
	1280	1280	9.80338E+000	5.00118E-005	0.00000E+000	1.49916E+000	0.00000E+000	8	..ch.......	1564.21
	1288	1288	9.86686E+000	5.00104E-005	0.00000E+000	1.49916E+000	0.00000E+000	8	..ch.......	1564.21
	1296	1296	9.82323E+000	5.00107E-005	0.00000E+000	1.49916E+000	0.00000E+000	8	..ch.......	1564.30
	1304	1304	9.93864E+000	5.00112E-005	0.00000E+000	1.49916E+000	0.00000E+000	8	..ch.......	1564.11
	1312	1312	9.91871E+000	5.00107E-005	0.00000E+000	1.49916E+000	0.00000E+000	8	..ch.......	1564.21
	1320	1320	9.96647E+000	5.00415E-005	0.00000E+000	1.49916E+000	0.00000E+000	8	..ch.......	1564.40
	1328	1328	1.00596E+001	5.00756E-005	0.00000E+000	1.49916E+000	0.00000E+000	8	..ch.......	1564.30
	1336	1336	1.01468E+001	5.00108E-005	0.00000E+000	1.49916E+000	0.00000E+000	8	..ch.......	1564.21
	1344	1344	1.03143E+001	5.00104E-005	0.00000E+000	1.49916E+000	0.00000E+000	8	..ch.......	1564.21
	1352	1352	1.03571E+001	5.00105E-005	0.00000E+000	1.49916E+000	0.00000E+000	8	..ch.......	1564.30
	1360	1360	1.04265E+001	5.00110E-005	0.00000E+000	1.49916E+000	0.00000E+000	8	..ch.......	1564.30
	1368	1368	1.04201E+001	5.00110E-005	0.00000E+000	1.49916E+000	0.00000E+000	8	..ch.......	1564.11
	1376	1376	1.03008E+001	5.01092E-005	0.00000E+000	1.49916E+000	0.00000E+000	8	..ch.......	1564.59
	1384	1384	1.03300E+001	5.00104E-005	0.00000E+000	1.49916E+000	0.00000E+000	8	..ch.......	1564.21
	1392	1392	1.04805E+001	5.00105E-005	0.00000E+000	1.49916E+000	0.00000E+000	8	..ch.......	1564.30
	1400	1400	1.04897E+001	5.01023E-005	0.00000E+000	1.49916E+000	0.00000E+000	8	..ch.......	1564.40
	1408	1408	1.05455E+001	5.00217E-005	0.00000E+000	1.49916E+000	0.00000E+000	8	..ch.......	1564.30
	1416	1416	1.06012E+001	5.00093E-005	0.00000E+000	1.49916E+000	0.00000E+000	8	..ch.......	1564.30
	1424	1424	1.06476E+001	5.00102E-005	0.00000E+000	1.49916E+000	0.00000E+000	8	..ch.......	1564.40
	1432	1432	1.01971E+001	5.00977E-005	0.00000E+000	1.49916E+000	0.00000E+000	8	..ch.......	1564.30
	1440	1440	1.02279E+001	5.00101E-005	0.00000E+000	1.49916E+000	0.00000E+000	8	..ch.......	1564.40
	1448	1448	1.02695E+001	5.00126E-005	0.00000E+000	1.49916E+000	0.00000E+000	8	..ch.......	1564.21
	1456	1456	1.03852E+001	5.00524E-005	0.00000E+000	1.49916E+000	0.00000E+000	8	..ch.......	1564.68
	1464	1464	1.04638E+001	5.00248E-005	0.00000E+000	1.49916E+000	0.00000E+000	8	..ch.......	1564.30
	1472	1472	1.05464E+001	5.00115E-005	0.00000E+000	1.49916E+000	0.00000E+000	8	..ch.......	1564.40
	1480	1480	1.06344E+001	5.00119E-005	0.00000E+000	1.49916E+000	0.00000E+000	8	..ch.......	1564.21
	1488	1488	1.07522E+001	5.00112E-005	0.00000E+000	1.49916E+000	0.00000E+000	8	..ch.......	1564.30
	1496	1496	1.04790E+001	5.00115E-005	0.00000E+000	1.49916E+000	0.00000E+000	8	..ch.......	1564.21
	1504	1504	1.00521E+001	5.01067E-005	0.00000E+000	1.49916E+000	0.00000E+000	8	..ch.......	1564.30
	1512	1512	1.02211E+001	5.00239E-005	0.00000E+000	1.49916E+000	0.00000E+000	8	..ch.......	1564.21
	1520	1520	1.04070E+001	5.00105E-005	0.00000E+000	1.49916E+000	0.00000E+000	8	..ch.......	1564.30
	1528	1528	1.05149E+001	5.01108E-005	0.00000E+000	1.49916E+000	0.00000E+000	8	..ch.......	1564.40
	1536	1536	1.05651E+001	5.01139E-005	0.00000E+000	1.49916E+000	0.00000E+000	8	..ch.......	1564.21
	1544	1544	1.06790E+001	5.00107E-005	0.00000E+000	1.49916E+000	0.00000E+000	8	..ch.......	1564.21
	1552	1552	1.10245E+001	5.00110E-005	0.00000E+000	1.49916E+000	0.00000E+000	8	..ch.......	1564.21
	1560	1560	1.10031E+001	5.00118E-005	0.00000E+000	1.49916E+000	0.00000E+000	8	..ch.......	1564.30
	1568	1568	1.09804E+001	5.00107E-005	0.00000E+000	1.49916E+000	0.00000E+000	8	..ch.......	1564.21
	1576	1576	1.10253E+001	5.00102E-005	0.00000E+000	1.49916E+000	0.00000E+000	8	..ch.......	1564.59
	1584	1584	1.10636E+001	5.00368E-005	0.00000E+000	1.49916E+000	0.00000E+000	8	..ch.......	1564.21
	1592	1592	1.11419E+001	5.00120E-005	0.00000E+000	1.49916E+000	0.00000E+000	8	..ch.......	1564.59
	1600	1600	1.11269E+001	5.00292E-005	0.00000E+000	1.49916E+000	0.00000E+000	8	..ch.......	1564.30
	1608	1608	1.11706E+001	5.00107E-005	0.00000E+000	1.49916E+000	0.00000E+000	8	..ch.......	1564.21
	1616	1616	1.11481E+001	5.00817E-005	0.00000E+000	1.49916E+000	0.00000E+000	8	..ch.......	1564.30
	1624	1624	1.11710E+001	5.00103E-005	0.00000E+000	1.49916E+000	0.00000E+000	8	..ch.......	1564.21
	1632	1632	1.13112E+001	5.00107E-005	0.00000E+000	1.49916E+000	0.00000E+000	8	..ch.......	1564.49
	1640	1640	1.12761E+001	5.00108E-005	0.00000E+000	1.49916E+000	0.00000E+000	8	..ch.......	1564.30
	1648	1648	1.13773E+001	5.00108E-005	0.00000E+000	1.49916E+000	0.00000E+000	8	..ch.......	1564.49
	1656	1656	1.15548E+001	5.00106E-005	0.00000E+000	1.49916E+000	0.00000E+000	8	..ch.......	1564.30
	1664	1664	1.16505E+001	5.00147E-005	0.00000E+000	1.49916E+000	0.00000E+000	8	..ch.......	1564.30
	1672	1672	1.17817E+001	5.00109E-005	0.00000E+000	1.49916E+000	0.00000E+000	8	..ch.......	1564.40
	1680	1680	1.10982E+001	5.00129E-005	0.00000E+000	1.49916E+000	0.00000E+000	8	..ch.......	1564.21
	1688	1688	1.10164E+001	5.00113E-005	0.00000E+000	1.49916E+000	0.00000E+000	8	..ch.......	1564.21
	1696	1696	1.09641E+001	5.00119E-005	0.00000E+000	1.49916E+000	0.00000E+000	8	..ch.......	1564.30
	1704	1704	1.10875E+001	5.00115E-005	0.00000E+000	1.49916E+000	0.00000E+000	8	..ch.......	1564.30
	1712	1712	1.11671E+001	5.00129E-005	0.00000E+000	1.49916E+000	0.00000E+000	8	..ch.......	1564.40
	1720	1720	1.12550E+001	5.00118E-005	0.00000E+000	1.49916E+000	0.00000E+000	8	..ch.......	1564.21
	1728	1728	1.12841E+001	5.00109E-005	0.00000E+000	1.49916E+000	0.00000E+000	8	..ch.......	1564.59
	1736	1736	1.14013E+001	5.00112E-005	0.00000E+000	1.49916E+000	0.00000E+000	8	..ch.......	1564.40
	1744	1744	1.14776E+001	5.00109E-005	0.00000E+000	1.49916E+000	0.00000E+000	8	..ch.......	1564.21
	1752	1752	1.16339E+001	5.00110E-005	0.00000E+000	1.49916E+000	0.00000E+000	8	..ch.......	1564.40
	1760	1760	1.09549E+001	5.00108E-005	0.00000E+000	1.49916E+000	0.00000E+000	8	..ch.......	1564.30
	1768	1768	1.10889E+001	5.00117E-005	0.00000E+000	1.49916E+000	0.00000E+000	8	..ch.......	1564.40
	1776	1776	1.14224E+001	5.00126E-005	0.00000E+000	1.49916E+000	0.00000E+000	8	..ch.......	1564.40
	1784	1784	1.15380E+001	5.00131E-005	0.00000E+000	1.49916E+000	0.00000E+000	8	..ch.......	1564.30
	1792	1792	1.15188E+001	5.00125E-005	0.00000E+000	1.49916E+000	0.00000E+000	8	..ch.......	1564.21
	1800	1800	1.16763E+001	5.00127E-005	0.00000E+000	1.49916E+000	0.00000E+000	8	..ch.......	1564.21
	1808	1808	1.17435E+001	5.00152E-005	0.00000E+000	1.49916E+000	0.00000E+000	8	..ch.......	1564.40
	1816	1816	1.15115E+001	5.00121E-005	0.00000E+000	1.49916E+000	0.00000E+000	8	..ch.......	1564.40
	1824	1824	1.15455E+001	5.00126E-005	0.00000E+000	1.49916E+000	0.00000E+000	8	..ch.......	1564.40
	1832	1832	1.15765E+001	5.00096E-005	0.00000E+000	1.49916E+000	0.00000E+000	8	..ch.......	1564.40
	1840	1840	1.17112E+001	5.00110E-005	0.00000E+000	1.49916E+000	0.00000E+000	8	..ch.......	1564.68
	1848	1848	1.18602E+001	5.00109E-005	0.00000E+000	1.49916E+000	0.00000E+000	8	..ch.......	1564.49
	1856	1856	1.18956E+001	5.00113E-005	0.00000E+000	1.49916E+000	0.00000E+000	8	..ch.......	1564.30
	1864	1864	1.19813E+001	5.00111E-005	0.00000E+000	1.49916E+000	0.00000E+000	8	..ch.......	1564.40
	1872	1872	1.15968E+001	5.00111E-005	0.00000E+000	1.49916E+000	0.00000E+000	8	..ch.......	1564.21
	1880	1880	1.16586E+001	5.00103E-005	0.00000E+000	1.49916E+000	0.00000E+000	8	..ch.......	1564.30
	1888	1888	1.18083E+001	5.00118E-005	0.00000E+000	1.49916E+000	0.00000E+000	8	..ch.......	1564.30
	1896	1896	1.19299E+001	5.00109E-005	0.00000E+000	1.49916E+000	0.00000E+000	8	..ch.......	1564.49
	1904	1904	1.19778E+001	5.00110E-005	0.00000E+000	1.49916E+000	0.00000E+000	8	..ch.......	1564.30
	1912	1912	1.20105E+001	5.00128E-005	0.00000E+000	1.49916E+000	0.00000E+000	8	..ch.......	1564.30
	1920	1920	1.19931E+001	5.00119E-005	0.00000E+000	1.49916E+000	0.00000E+000	8	..ch.......	1564.30
	1928	1928	1.19580E+001	5.00110E-005	0.00000E+000	1.49916E+000	0.00000E+000	8	..ch.......	1564.21
	1936	1936	1.19765E+001	5.00111E-005	0.00000E+000	1.49916E+000	0.00000E+000	8	..ch.......	1564.21
	1944	1944	1.19874E+001	5.00107E-005	0.00000E+000	1.49916E+000	0.00000E+000	8	..ch.......	1564.21
	1952	1952	1.20951E+001	5.00112E-005	0.00000E+000	1.49916E+000	0.00000E+000	8	..ch.......	1564.30
	1960	1960	1.22213E+001	5.00109E-005	0.00000E+000	1.49916E+000	0.00000E+000	8	..ch.......	1564.68
	1968	1968	1.19762E+001	5.00116E-005	0.00000E+000	1.49916E+000	0.00000E+000	8	..ch.......	1564.30
	1976	1976	1.19940E+001	5.00110E-005	0.00000E+000	1.49916E+000	0.00000E+000	8	..ch.......	1564.30
	1984	1984	1.20462E+001	5.00113E-005	0.00000E+000	1.49916E+000	0.00000E+000	8	..ch.......	1564.68
	1992	1992	1.16591E+001	5.00275E-005	0.00000E+000	1.49916E+000	0.00000E+000	8	..ch.......	1564.21
	2000	2000	1.17479E+001	5.00122E-005	0.00000E+000	1.49916E+000	0.00000E+000	8	..ch.......	1564.21
	2008	2008	6.19328E-001	3.52551E-009	0.00000E+000	-5.32866E-005	0.00000E+000	8	..ch.......	1564.11
	2016	2016	5.97970E-001	3.44458E-009	0.00000E+000	-5.32866E-005	0.00000E+000	8	..ch.......	1564.30
	2024	2024	6.10565E-001	3.77329E-009	0.00000E+000	-5.32866E-005	0.00000E+000	8	..ch.......	1564.11
	2032	2032	5.88232E-001	4.73551E-009	0.00000E+000	-5.32866E-005	0.00000E+000	8	..ch.......	1564.11
	2040	2040	5.96892E-001	2.82804E-009	0.00000E+000	-5.32866E-005	0.00000E+000	8	..ch.......	1564.02
	2048	2048	5.91306E-001	3.43485E-009	0.00000E+000	-5.32866E-005	0.00000E+000	8	..ch.......	1564.21
	2056	2056	5.82927E-001	3.81862E-009	0.00000E+000	-5.32866E-005	0.00000E+000	8	..ch.......	1564.11
	2064	2064	5.77598E-001	2.58720E-009	0.00000E+000	-5.32866E-005	0.00000E+000	8	..ch.......	1564.02
	2072	2072	5.36886E-001	2.66785E-009	0.00000E+000	-5.32866E-005	0.00000E+000	8	..ch.......	1564.02
	2080	2080	2.88796E-002	3.84866E-009	0.00000E+000	-5.32866E-005	0.00000E+000	8	..ch.......	1564.21
	2088	2088	2.34248E-002	2.96152E-009	0.00000E+000	-5.32866E-005	0.00000E+000	8	..ch.......	1564.11
	2096	2096	2.83075E-002	3.74771E-009	0.00000E+000	-5.32866E-005	0.00000E+000	8	..ch.......	1564.11
	2104	2104	2.52474E-002	4.15651E-009	0.00000E+000	-5.32866E-005	0.00000E+000	8	..ch.......	1564.11
	2112	2112	2.40173E-002	5.93801E-009	0.00000E+000	-5.32866E-005	0.00000E+000	8	..ch.......	1564.30
	2120	2120	2.19925E-002	6.92304E-009	0.00000E+000	-5.32866E-005	0.00000E+000	8	..ch.......	1564.30
	2128	2128	1.98389E-002	4.92240E-009	0.00000E+000	-5.32866E-005	0.00000E+000	8	..ch.......	1564.30
	2136	2136	1.84892E-002	6.97476E-009	0.00000E+000	-5.32866E-005	0.00000E+000	8	..ch.......	1564.30
	2144	2144	1.69605E-002	2.37668E-009	0.00000E+000	-5.32866E-005	0.00000E+000	8	..ch.......	1564.21
	2152	2152	1.58353E-002	2.69121E-009	0.00000E+000	-5.32866E-005	0.00000E+000	8	..ch.......	1564.30
	2160	2160	1.22799E-002	4.72606E-009	0.00000E+000	-5.32866E-005	0.00000E+000	8	..ch.......	1564.21
	2168	2168	1.00585E-002	2.74906E-009	0.00000E+000	-5.32866E-005	0.00000E+000	8	..ch.......	1564.21
	2176	2176	8.82186E-003	3.54748E-009	0.00000E+000	-5.32866E-005	0.00000E+000	8	..ch.......	1564.21
	2184	2184	8.59992E-003	2.48486E-009	0.00000E+000	-5.32866E-005	0.00000E+000	8	..ch.......	1564.21
	2192	2192	6.74506E-003	3.62423E-009	0.00000E+000	-5.32866E-005	0.00000E+000	8	..ch.......	1564.11
	2200	2200	9.68962E-003	3.95934E-009	0.00000E+000	-5.32866E-005	0.00000E+000	8	..ch.......	1564.21
	2208	2208	9.16974E-003	4.16792E-009	0.00000E+000	-5.32866E-005	0.00000E+000	8	..ch.......	1564.40
	2216	2216	8.12390E-003	3.57557E-009	0.00000E+000	-5.32866E-005	0.00000E+000	8	..ch.......	1564.59
	2224	2224	8.15244E-003	2.96152E-009	0.00000E+000	-5.32866E-005	0.00000E+000	8	..ch.......	1564.21
	2232	2232	5.82949E-003	3.55888E-009	0.00000E+000	-5.32866E-005	0.00000E+000	8	..ch.......	1564.11
	2240	2240	3.55751E-003	3.55832E-009	0.00000E+000	-5.32866E-005	0.00000E+000	8	..ch.......	1564.40
	2248	2248	2.75269E-003	4.09477E-009	0.00000E+000	-5.32866E-005	0.00000E+000	8	..ch.......	1564.30
	2256	2256	1.14582E-003	2.52129E-009	0.00000E+000	-5.32866E-005	0.00000E+000	8	..ch.......	1564.21
	2264	2264	-2.13338E-004	4.37871E-009	0.00000E+000	-5.32866E-005	0.00000E+000	8	..ch.......	1564.30
	2272	2272	-1.55771E-003	3.53858E-009	0.00000E+000	-5.32866E-005	0.00000E+000	8	..ch.......	1564.11
	2280	2280	-2.71817E-003	3.01436E-009	0.00000E+000	-5.32866E-005	0.00000E+000	8	..ch.......	1564.30
	2288	2288	-4.55593E-003	3.80945E-009	0.00000E+000	-5.32866E-005	0.00000E+000	8	..ch.......	1564.40
	2296	2296	-3.71929E-003	4.50024E-009	0.00000E+000	-5.32866E-005	0.00000E+000	8	..ch.......	1564.11
	2304	2304	-4.20156E-003	4.27637E-009	0.00000E+000	-5.32866E-005	0.00000E+000	8	..ch.......	1564.11
	2312	2312	-5.58311E-003	4.21102E-009	0.00000E+000	-5.32866E-005	0.00000E+000	8	..ch.......	1564.11
	2320	2320	-6.82525E-003	4.18544E-009	0.00000E+000	-5.32866E-005	0.00000E+000	8	..ch.......	1564.21
	2328	2328	-2.82729E-003	4.02803E-009	0.00000E+000	-5.32866E-005	0.00000E+000	8	..ch.......	1564.30
	2336	2336	-4.11072E-003	3.93821E-009	0.00000E+000	-5.32866E-005	0.00000E+000	8	..ch.......	1564.21
	2344	2344	-4.27476E-003	4.30085E-009	0.00000E+000	-5.32866E-005	0.00000E+000	8	..ch.......	1564.11
	2352	2352	-7.22304E-003	3.16092E-009	0.00000E+000	-5.32866E-005	0.00000E+000	8	..ch.......	1564.30
	2360	2360	-6.71178E-003	3.41622E-009	0.00000E+000	-5.32866E-005	0.00000E+000	8	..ch.......	1564.30
	2368	2368	-1.06156E-002	4.77389E-009	0.00000E+000	-5.32866E-005	0.00000E+000	8	..ch.......	1564.21
	2376	2376	-1.13291E-002	4.52360E-009	0.00000E+000	-5.32866E-005	0.00000E+000	8	..ch.......	1564.11
	2384	2384	-1.28873E-002	5.52253E-009	0.00000E+000	-5.32866E-005	0.00000E+000	8	..ch.......	1564.11
	2392	2392	-1.43110E-002	4.82339E-009	0.00000E+000	-5.32866E-005	0.00000E+000	8	..ch.......	1564.21
	2400	2400	-1.31252E-002	3.06665E-009	0.00000E+000	-5.32866E-005	0.00000E+000	8	..ch.......	1564.30
	2408	2408	-1.47571E-002	1.20186E-008	0.00000E+000	-5.32866E-005	0.00000E+000	8	..ch.......	1564.21
	2416	2416	-1.38046E-002	3.59058E-009	0.00000E+000	-5.32866E-005	0.00000E+000	8	..ch.......	1564.11
	2424	2424	-1.37424E-002	2.78243E-009	0.00000E+000	-5.32866E-005	0.00000E+000	8	..ch.......	1564.21
	2432	2432	-1.49159E-002	8.36776E-009	0.00000E+000	-5.32866E-005	0.00000E+000	8	..ch.......	1564.11
	2440	2440	-1.54891E-002	2.52908E-009	0.00000E+000	-5.32866E-005	0.00000E+000	8	..ch.......	1564.49
	2448	2448	-1.43093E-002	3.36588E-009	0.00000E+000	-5.32866E-005	0.00000E+000	8	..ch.......	1564.30
	2456	2456	-1.40247E-002	3.41705E-009	0.00000E+000	-5.32866E-005	0.00000E+000	8	..ch.......	1564.11
	2464	2464	-1.31886E-002	4.31670E-009	0.00000E+000	-5.32866E-005	0.00000E+000	8	..ch.......	1564.21
	2472	2472	-1.32961E-002	3.60087E-009	0.00000E+000	-5.32866E-005	0.00000E+000	8	..ch.......	1564.11
	2480	2480	-1.68363E-002	5.58427E-009	0.00000E+000	-5.32866E-005	0.00000E+000	8	..ch.......	1564.40
	2488	2488	-1.77495E-002	4.68546E-009	0.00000E+000	-5.32866E-005	0.00000E+000	8	..ch.......	1564.11
	2496	2496	-1.69022E-002	2.62664E-008	0.00000E+000	-5.32866E-005	0.00000E+000	8	..ch.......	1564.30
	2504	2504	-1.78982E-002	2.75657E-009	0.00000E+000	-5.32866E-005	0.00000E+000	8	..ch.......	1564.49
	2512	2512	-1.88650E-002	3.63953E-009	0.00000E+000	-5.32866E-005	0.00000E+000	8	..ch.......	1564.21
	2520	2520	-1.80070E-002	5.40684E-009	0.00000E+000	-5.32866E-005	0.00000E+000	8	..ch.......	1564.11
	2528	2528	-2.00008E-002	4.46409E-009	0.00000E+000	-5.32866E-005	0.00000E+000	8	..ch.......	1564.11
	2536	2536	-2.15359E-002	3.23462E-009	0.00000E+000	-5.32866E-005	0.00000E+000	8	..ch.......	1564.30
	2544	2544	-2.11440E-002	4.78418E-009	0.00000E+000	-5.32866E-005	0.00000E+000	8	..ch.......	1564.49
	2552	2552	-2.10140E-002	3.31471E-009	0.00000E+000	-5.32866E-005	0.00000E+000	8	..ch.......	1564.30
	2560	2560	-1.97795E-002	5.21134E-009	0.00000E+000	-5.32866E-005	0.00000E+000	8	..ch.......	1564.11
	2568	2568	-1.82839E-002	1.86983E-008	0.00000E+000	-5.32866E-005	0.00000E+000	8	..ch.......	1564.40
	2576	2576	-1.89622E-002	2.70846E-009	0.00000E+000	-5.32866E-005	0.00000E+000	8	..ch.......	1564.11
	2584	2584	-1.99087E-002	3.17538E-009	0.00000E+000	-5.32866E-005	0.00000E+000	8	..ch.......	1564.30
	2592	2592	-2.01010E-002	3.61923E-009	0.00000E+000	-5.32866E-005	0.00000E+000	8	..ch.......	1564.11
	2600	2600	-2.10603E-002	4.53334E-009	0.00000E+000	-5.32866E-005	0.00000E+000	8	..ch.......	1564.21
	2608	2608	-2.18187E-002	2.95263E-009	0.00000E+000	-5.32866E-005	0.00000E+000	8	..ch.......	1564.21
	2616	2616	-2.17440E-002	2.35499E-009	0.00000E+000	-5.32866E-005	0.00000E+000	8	..ch.......	1564.11
	2624	2624	-2.24937E-002	2.66146E-009	0.00000E+000	-5.32866E-005	0.00000E+000	8	..ch.......	1564.30
	2632	2632	-2.22107E-002	2.52853E-009	0.00000E+000	-5.32866E-005	0.00000E+000	8	..ch.......	1564.11
	2640	2640	-2.41419E-002	2.66479E-009	0.00000E+000	-5.32866E-005	0.00000E+000	8	..ch.......	1564.21
	2648	2648	-2.39022E-002	2.06550E-008	0.00000E+000	-5.32866E-005	0.00000E+000	8	..ch.......	1564.21
	2656	2656	-3.64158E-002	6.62992E-009	0.00000E+000	-5.32866E-005	0.00000E+000	8	..ch.......	1564.40
	2664	2664	-3.61939E-002	1.22547E-008	0.00000E+000	-5.32866E-005	0.00000E+000	8	..ch.......	1564.02
	2672	2672	-3.67098E-002	6.76368E-009	0.00000E+000	-5.32866E-005	0.00000E+000	8	..ch.......	1564.30
	2680	2680	-3.75708E-002	2.65256E-009	0.00000E+000	-5.32866E-005	0.00000E+000	8	..ch.......	1564.30
	2688	2688	-3.86383E-002	2.97237E-009	0.00000E+000	-5.32866E-005	0.00000E+000	8	..ch.......	1564.11
	2696	2696	-3.81825E-002	4.58840E-009	0.00000E+000	-5.32866E-005	0.00000E+000	8	..ch.......	1564.02
	2704	2704	-3.79890E-002	1.61225E-008	0.00000E+000	-5.32866E-005	0.00000E+000	8	..ch.......	1564.02
	2712	2712	-4.33936E-002	2.86530E-009	0.00000E+000	-5.32866E-005	0.00000E+000	8	..ch.......	1564.02
	2720	2720	-4.20887E-002	2.70178E-009	0.00000E+000	-5.32866E-005	0.00000E+000	8	..ch.......	1564.02
	2728	2728	-3.83074E-002	2.84971E-008	0.00000E+000	-5.32866E-005	0.00000E+000	8	..ch.......	1563.92
	2736	2736	-3.48940E-002	2.64177E-008	0.00000E+000	-5.32866E-005	0.00000E+000	8	..ch.......	1564.02
	2744	2744	-3.26203E-002	2.57225E-008	0.00000E+000	-5.32866E-005	0.00000E+000	8	..ch.......	1563.92
	2752	2752	-3.37612E-002	2.64366E-009	0.00000E+000	-5.32866E-005	0.00000E+000	8	..ch.......	1563.92
	2760	2760	-3.30388E-002	5.16823E-009	0.00000E+000	-5.32866E-005	0.00000E+000	8	..ch.......	1564.02
	2768	2768	-3.47728E-002	2.84611E-009	0.00000E+000	-5.32866E-005	0.00000E+000	8	..ch.......	1563.92
	2776	2776	-3.40127E-002	4.31030E-009	0.00000E+000	-5.32866E-005	0.00000E+000	8	..ch.......	1564.11
	2784	2784	-3.24633E-002	2.59433E-008	0.00000E+000	-5.32866E-005	0.00000E+000	8	..ch.......	1564.30
	2792	2792	-3.25704E-002	3.31800E-008	0.00000E+000	-5.32866E-005	0.00000E+000	8	..ch.......	1564.02
	2800	2800	-3.25321E-002	3.27701E-008	0.00000E+000	-5.32866E-005	0.00000E+000	8	..ch.......	1564.02
	2808	2808	-2.99272E-002	4.47197E-008	0.00000E+000	-5.32866E-005	0.00000E+000	8	..ch.......	1564.11
	2816	2816	-2.88165E-002	2.41223E-008	0.00000E+000	-5.32866E-005	0.00000E+000	8	..ch.......	1564.02
	2824	2824	-2.93002E-002	4.26998E-009	0.00000E+000	-5.32866E-005	0.00000E+000	8	..ch.......	1563.92
	2832	2832	-2.84405E-002	3.41538E-009	0.00000E+000	-5.32866E-005	0.00000E+000	8	..ch.......	1564.30
	2840	2840	-3.08161E-002	3.11225E-009	0.00000E+000	-5.32866E-005	0.00000E+000	8	..ch.......	1564.11
	2848	2848	-3.02767E-002	2.37989E-008	0.00000E+000	-5.32866E-005	0.00000E+000	8	..ch.......	1564.02
	2856	2856	-3.19686E-002	3.45042E-009	0.00000E+000	-5.32866E-005	0.00000E+000	8	..ch.......	1564.11
	2864	2864	-3.14033E-002	2.33517E-008	0.00000E+000	-5.32866E-005	0.00000E+000	8	..ch.......	1564.02
	2872	2872	-3.16303E-002	1.87100E-008	0.00000E+000	-5.32866E-005	0.00000E+000	8	..ch.......	1564.02
	2880	2880	-3.15699E-002	2.33573E-008	0.00000E+000	-5.32866E-005	0.00000E+000	8	..ch.......	1564.02
	2888	2888	-3.08388E-002	3.35796E-008	0.00000E+000	-5.32866E-005	0.00000E+000	8	..ch.......	1564.11
	2896	2896	-3.26940E-002	3.68784E-008	0.00000E+000	-5.32866E-005	0.00000E+000	8	..ch.......	1564.02
	2904	2904	-3.56831E-002	3.44959E-009	0.00000E+000	-5.32866E-005	0.00000E+000	8	..ch.......	1564.02
	2912	2912	-3.37245E-002	4.69102E-009	0.00000E+000	-5.32866E-005	0.00000E+000	8	..ch.......	1563.92
	2920	2920	-3.02511E-002	2.52296E-009	0.00000E+000	-5.32866E-005	0.00000E+000	8	..ch.......	1564.02
	2928	2928	-2.78077E-002	3.32417E-009	0.00000E+000	-5.32866E-005	0.00000E+000	8	..ch.......	1564.02
	2936	2936	-2.52398E-002	3.34606E-008	0.00000E+000	-5.32866E-005	0.00000E+000	8	..ch.......	1564.11
	2944	2944	-2.82095E-002	3.66501E-008	0.00000E+000	-5.32866E-005	0.00000E+000	8	..ch.......	1564.30
	2952	2952	-3.13615E-002	5.79423E-009	0.00000E+000	-5.32866E-005	0.00000E+000	8	..ch.......	1564.40
	2960	2960	-3.11188E-002	1.20754E-008	0.00000E+000	-5.32866E-005	0.00000E+000	8	..ch.......	1564.21
	2968	2968	-3.13436E-002	3.08417E-009	0.00000E+000	-5.32866E-005	0.00000E+000	8	..ch.......	1564.30
	2976	2976	-3.13466E-002	2.88560E-009	0.00000E+000	-5.32866E-005	0.00000E+000	8	..ch.......	1564.02
	2984	2984	-3.11760E-002	2.59026E-009	0.00000E+000	-5.32866E-005	0.00000E+000	8	..ch.......	1563.92
	2992	2992	-3.23085E-002	2.89784E-009	0.00000E+000	-5.32866E-005	0.00000E+000	8	..ch.......	1564.02
	3000	3000	-3.31580E-002	3.88704E-009	0.00000E+000	-5.32866E-005	0.00000E+000	8	..ch.......	1563.92
	3008	3008	-3.26440E-002	3.57918E-009	0.00000E+000	-5.32866E-005	0.00000E+000	8	..ch.......	1563.92
	3016	3016	-3.00292E-002	5.39488E-009	0.00000E+000	-5.32866E-005	0.00000E+000	8	..ch.......	1564.11
	3024	3024	-3.16626E-002	1.40932E-008	0.00000E+000	-5.32866E-005	0.00000E+000	8	..ch.......	1564.21
	3032	3032	-3.84293E-002	3.78553E-009	0.00000E+000	-5.32866E-005	0.00000E+000	8	..ch.......	1563.92
	3040	3040	-3.99175E-002	3.33279E-009	0.00000E+000	-5.32866E-005	0.00000E+000	8	..ch.......	1564.21
	3048	3048	-3.83500E-002	6.73754E-009	0.00000E+000	-5.32866E-005	0.00000E+000	8	..ch.......	1564.02
	3056	3056	-3.85442E-002	3.73241E-009	0.00000E+000	-5.32866E-005	0.00000E+000	8	..ch.......	1563.92
	3064	3064	-3.90048E-002	5.31618E-009	0.00000E+000	-5.32866E-005	0.00000E+000	8	..ch.......	1564.02
	3072	3072	-3.89318E-002	1.56275E-008	0.00000E+000	-5.32866E-005	0.00000E+000	8	..ch.......	1564.30
	3080	3080	-4.00182E-002	2.87448E-009	0.00000E+000	-5.32866E-005	0.00000E+000	8	..ch.......	1564.02
	3088	3088	-4.17905E-002	3.86618E-009	0.00000E+000	-5.32866E-005	0.00000E+000	8	..ch.......	1564.11
	3096	3096	-3.63163E-002	4.47883E-009	0.00000E+000	-5.32866E-005	0.00000E+000	8	..ch.......	1563.92
	3104	3104	-3.54472E-002	1.83782E-008	0.00000E+000	-5.32866E-005	0.00000E+000	8	..ch.......	1563.92
	3112	3112	-3.69115E-002	2.34276E-009	0.00000E+000	-5.32866E-005	0.00000E+000	8	..ch.......	1564.11
	3120	3120	-3.76138E-002	2.80718E-009	0.00000E+000	-5.32866E-005	0.00000E+000	8	..ch.......	1564.11
	3128	3128	-3.75123E-002	4.10785E-009	0.00000E+000	-5.32866E-005	0.00000E+000	8	..ch.......	1563.92
	3136	3136	-3.84947E-002	2.80495E-009	0.00000E+000	-5.32866E-005	0.00000E+000	8	..ch.......	1564.11
	3144	3144	-3.92108E-002	8.03988E-009	0.00000E+000	-5.32866E-005	0.00000E+000	8	..ch.h.....	1564.02
	3152	3152	-3.97986E-002	4.33144E-009	0.00000E+000	-5.32866E-005	0.00000E+000	8	..ch.......	1564.02
	3160	3160	-4.14296E-002	1.68060E-009	0.00000E+000	-5.32866E-005	0.00000E+000	8	..ch.......	1564.30
	3168	3168	-4.23166E-002	2.91230E-009	0.00000E+000	-5.32866E-005	0.00000E+000	8	..ch.......	1563.92
	3176	3176	-4.16827E-002	2.96764E-009	0.00000E+000	-5.32866E-005	0.00000E+000	8	..ch.......	1564.02
	3184	3184	-3.70492E-002	5.43104E-009	0.00000E+000	-5.32866E-005	0.00000E+000	8	..ch.......	1564.02
	3192	3192	-3.52007E-002	3.75884E-008	0.00000E+000	-5.32866E-005	0.00000E+000	8	..ch.......	1564.30
	3200	3200	-3.65299E-002	2.88133E-008	0.00000E+000	-5.32866E-005	0.00000E+000	8	..ch.......	1564.21
	3208	3208	-3.87628E-002	2.78744E-009	0.00000E+000	-5.32866E-005	0.00000E+000	8	..ch.......	1563.92
	3216	3216	-3.94796E-002	2.66841E-009	0.00000E+000	-5.32866E-005	0.00000E+000	8	..ch.......	1563.92
	3224	3224	-3.96432E-002	3.46655E-009	0.00000E+000	-5.32866E-005	0.00000E+000	8	..ch.......	1564.02
	3232	3232	-3.95609E-002	1.63456E-008	0.00000E+000	-5.32866E-005	0.00000E+000	8	..ch.......	1564.02
	3240	3240	-4.05313E-002	3.13951E-009	0.00000E+000	-5.32866E-005	0.00000E+000	8	..ch.......	1564.02
	3248	3248	-4.09773E-002	8.99960E-009	0.00000E+000	-5.32866E-005	0.00000E+000	8	..ch.......	1564.11
	3256	3256	-4.08410E-002	1.37097E-008	0.00000E+000	-5.32866E-005	0.00000E+000	8	..ch.......	1564.30
	3264	3264	-4.00940E-002	3.95351E-008	0.00000E+000	-5.32866E-005	0.00000E+000	8	..ch.......	1563.92
	3272	3272	-3.96546E-002	3.84280E-008	0.00000E+000	-5.32866E-005	0.00000E+000	8	..ch.......	1563.92
	3280	3280	-4.21842E-002	3.72641E-008	0.00000E+000	-5.32866E-005	0.00000E+000	8	..ch.......	1564.02
	3288	3288	-4.65800E-002	3.50576E-009	0.00000E+000	-5.32866E-005	0.00000E+000	8	..ch.......	1563.92
	3296	3296	-4.78457E-002	9.91176E-009	0.00000E+000	-5.32866E-005	0.00000E+000	8	..ch.......	1564.11
	3304	3304	-4.79287E-002	4.18544E-009	0.00000E+000	-5.32866E-005	0.00000E+000	8	..ch.......	1564.02
	3312	3312	-4.69008E-002	3.50849E-008	0.00000E+000	-5.32866E-005	0.00000E+000	8	..ch.......	1564.11
	3320	3320	-4.80492E-002	3.17853E-008	0.00000E+000	-5.32866E-005	0.00000E+000	8	..ch.......	1564.30
	3328	3328	-4.35694E-002	3.26552E-008	0.00000E+000	-5.32866E-005	0.00000E+000	8	..ch.......	1563.92
	3336	3336	-4.27055E-002	4.03835E-008	0.00000E+000	-5.32866E-005	0.00000E+000	8	..ch.......	1564.30
	3344	3344	-4.29276E-002	3.40471E-008	0.00000E+000	-5.32866E-005	0.00000E+000	8	..ch.......	1564.11
	3352	3352	-4.32291E-002	4.22379E-008	0.00000E+000	-5.32866E-005	0.00000E+000	8	..ch.......	1564.02
	3360	3360	-4.28042E-002	3.82138E-008	0.00000E+000	-5.32866E-005	0.00000E+000	8	..ch.......	1563.92
	3368	3368	-4.43619E-002	4.26553E-009	0.00000E+000	-5.32866E-005	0.00000E+000	8	..ch.......	1563.92
	3376	3376	-4.40477E-002	2.89284E-008	0.00000E+000	-5.32866E-005	0.00000E+000	8	..ch.......	1564.02
	3384	3384	-4.49113E-002	3.11559E-009	0.00000E+000	-5.32866E-005	0.00000E+000	8	..ch.......	1564.02
	3392	3392	-4.53426E-002	2.40937E-008	0.00000E+000	-5.32866E-005	0.00000E+000	8	..ch.......	1564.11
	3400	3400	-4.47839E-002	3.95134E-008	0.00000E+000	-5.32866E-005	0.00000E+000	8	..ch.......	1564.30
	3408	3408	-4.51546E-002	4.40219E-008	0.00000E+000	-5.32866E-005	0.00000E+000	8	..ch.......	1563.92
	3416	3416	-4.72581E-002	4.18491E-008	0.00000E+000	-5.32866E-005	0.00000E+000	8	..ch.......	1564.11
	3424	3424	-4.38071E-002	3.83826E-008	0.00000E+000	-5.32866E-005	0.00000E+000	8	..ch.......	1563.92
	3432	3432	-4.12117E-002	3.61745E-008	0.00000E+000	-5.32866E-005	0.00000E+000	8	..ch.......	1564.02
	3440	3440	-4.12002E-002	3.19555E-008	0.00000E+000	-5.32866E-005	0.00000E+000	8	..ch.......	1564.11
	3448	3448	-4.00977E-002	3.80339E-008	0.00000E+000	-5.32866E-005	0.00000E+000	8	..ch.......	1563.92
	3456	3456	-4.16860E-002	1.60027E-008	0.00000E+000	-5.32866E-005	0.00000E+000	8	..ch.......	1564.02
	3464	3464	-4.17378E-002	1.56089E-008	0.00000E+000	-5.32866E-005	0.00000E+000	8	..ch.......	1564.02
	3472	3472	-4.11507E-002	3.46912E-008	0.00000E+000	-5.32866E-005	0.00000E+000	8	..ch.......	1564.21
	3480	3480	-4.19736E-002	3.06501E-008	0.00000E+000	-5.32866E-005	0.00000E+000	8	..ch.......	1564.11
	3488	3488	-4.23314E-002	3.69921E-008	0.00000E+000	-5.32866E-005	0.00000E+000	8	..ch.......	1564.02
	3496	3496	-4.27173E-002	4.02929E-008	0.00000E+000	-5.32866E-005	0.00000E+000	8	..ch.......	1564.11
	3504	3504	-4.21252E-002	3.91699E-008	0.00000E+000	-5.32866E-005	0.00000E+000	8	..ch.......	1563.92
	3512	3512	-4.49849E-002	3.08253E-008	0.00000E+000	-5.32866E-005	0.00000E+000	8	..ch.......	1564.02
	3520	3520	-3.99252E-002	4.77417E-009	0.00000E+000	-5.32866E-005	0.00000E+000	8	..ch.......	1564.11
	3528	3528	-4.03577E-002	5.69217E-009	0.00000E+000	-5.32866E-005	0.00000E+000	8	..ch.......	1564.11
	3536	3536	-4.15031E-002	1.67658E-008	0.00000E+000	-5.32866E-005	0.00000E+000	8	..ch.......	1564.02
	3544	3544	-4.18215E-002	8.60859E-009	0.00000E+000	-5.32866E-005	0.00000E+000	8	..ch.......	1564.02
	3552	3552	-4.23923E-002	3.44041E-009	0.00000E+000	-5.32866E-005	0.00000E+000	8	..ch.......	1564.02
	3560	3560	-4.25287E-002	5.22052E-009	0.00000E+000	-5.32866E-005	0.00000E+000	8	..ch.......	1563.92
	3568	3568	-4.16937E-002	3.01587E-008	0.00000E+000	-5.32866E-005	0.00000E+000	8	..ch.......	1564.02
	3576	3576	-4.25264E-002	4.06113E-008	0.00000E+000	-5.32866E-005	0.00000E+000	8	..ch.......	1564.11
	3584	3584	-4.68462E-002	3.84544E-008	0.00000E+000	-5.32866E-005	0.00000E+000	8	..ch.......	1563.92
	3592	3592	-4.60988E-002	3.51531E-008	0.00000E+000	-5.32866E-005	0.00000E+000	8	..ch.......	1563.92
	3600	3600	-4.78884E-002	3.58864E-009	0.00000E+000	-5.32866E-005	0.00000E+000	8	..ch.......	1564.02
	3608	3608	-4.44048E-002	8.78768E-009	0.00000E+000	-5.32866E-005	0.00000E+000	8	..ch.......	1564.02
	3616	3616	-3.94894E-002	2.96601E-008	0.00000E+000	-5.32866E-005	0.00000E+000	8	..ch.......	1564.02
	3624	3624	-4.05553E-002	4.40124E-009	0.00000E+000	-5.32866E-005	0.00000E+000	8	..ch.......	1564.02
	3632	3632	-4.36544E-002	2.90451E-009	0.00000E+000	-5.32866E-005	0.00000E+000	8	..ch.......	1563.92
	3640	3640	-4.44091E-002	2.26962E-008	0.00000E+000	-5.32866E-005	0.00000E+000	8	..ch.......	1564.11
	3648	3648	-4.58512E-002	3.55051E-008	0.00000E+000	-5.32866E-005	0.00000E+000	8	..ch.......	1564.30
	3656	3656	-4.64724E-002	3.81960E-008	0.00000E+000	-5.32866E-005	0.00000E+000	8	..ch.......	1564.30
	3664	3664	-4.26493E-002	4.01683E-008	0.00000E+000	-5.32866E-005	0.00000E+000	8	..ch.......	1563.83
	3672	3672	-4.21793E-002	3.10603E-008	0.00000E+000	-5.32866E-005	0.00000E+000	8	..ch.......	1564.02
	3680	3680	-4.32075E-002	7.89916E-009	0.00000E+000	-5.32866E-005	0.00000E+000	8	..ch.......	1564.30
	3688	3688	-4.39487E-002	2.80913E-009	0.00000E+000	-5.32866E-005	0.00000E+000	8	..ch.......	1564.02
	3696	3696	-4.36324E-002	5.37764E-009	0.00000E+000	-5.32866E-005	0.00000E+000	8	..ch.......	1564.02
	3704	3704	-4.33239E-002	3.82140E-009	0.00000E+000	-5.32866E-005	0.00000E+000	8	..ch.......	1564.02
	3712	3712	-4.28530E-002	6.17634E-009	0.00000E+000	-5.32866E-005	0.00000E+000	8	..ch.......	1563.92
	3720	3720	-4.38721E-002	3.23740E-009	0.00000E+000	-5.32866E-005	0.00000E+000	8	..ch.......	1564.11
	3728	3728	-4.44889E-002	3.04106E-009	0.00000E+000	-5.32866E-005	0.00000E+000	8	..ch.......	1563.92
	3736	3736	-4.50346E-002	2.79661E-009	0.00000E+000	-5.32866E-005	0.00000E+000	8	..ch.......	1564.21
	3744	3744	-4.49059E-002	4.42599E-009	0.00000E+000	-5.32866E-005	0.00000E+000	8	..ch.......	1564.02
	3752	3752	-4.53390E-002	2.77436E-009	0.00000E+000	-5.32866E-005	0.00000E+000	8	..ch.......	1564.21
	3760	3760	-4.62369E-002	4.27943E-009	0.00000E+000	-5.32866E-005	0.00000E+000	8	..ch.......	1564.11
	3768	3768	-4.66648E-002	1.63937E-008	0.00000E+000	-5.32866E-005	0.00000E+000	8	..ch.......	1564.02
	3776	3776	-4.84214E-002	2.50795E-009	0.00000E+000	-5.32866E-005	0.00000E+000	8	..ch.......	1564.02
	3784	3784	-4.79663E-002	2.52046E-009	0.00000E+000	-5.32866E-005	0.00000E+000	8	..ch.......	1563.92
	3792	3792	-4.86364E-002	5.09120E-009	0.00000E+000	-5.32866E-005	0.00000E+000	8	..ch.......	1563.92
	3800	3800	-4.93435E-002	3.00685E-009	0.00000E+000	-5.32866E-005	0.00000E+000	8	..ch.......	1564.02
	3808	3808	-4.47038E-002	3.30525E-009	0.00000E+000	-5.32866E-005	0.00000E+000	8	..ch.......	1564.30
	3816	3816	-4.41070E-002	3.24185E-009	0.00000E+000	-5.32866E-005	0.00000E+000	8	..ch.......	1564.40
	3824	3824	-4.45400E-002	2.97321E-009	0.00000E+000	-5.32866E-005	0.00000E+000	8	..ch.......	1564.02
	3832	3832	-4.64731E-002	2.59499E-009	0.00000E+000	-5.32866E-005	0.00000E+000	8	..ch.......	1564.21
	3840	3840	-4.61951E-002	3.06859E-009	0.00000E+000	-5.32866E-005	0.00000E+000	8	..ch.......	1564.30
	3848	3848	-4.82483E-002	3.12366E-009	0.00000E+000	-5.32866E-005	0.00000E+000	8	..ch.......	1564.11
	3856	3856	-4.75517E-002	3.31276E-009	0.00000E+000	-5.32866E-005	0.00000E+000	8	..ch.......	1563.92
	3864	3864	-4.91649E-002	2.95735E-009	0.00000E+000	-5.32866E-005	0.00000E+000	8	..ch.......	1563.92
	3872	3872	-4.96576E-002	4.65292E-009	0.00000E+000	-5.32866E-005	0.00000E+000	8	..ch.......	1563.92
	3880	3880	-4.92259E-002	3.31221E-009	0.00000E+000	-5.32866E-005	0.00000E+000	8	..ch.......	1564.02
	3888	3888	-4.96807E-002	2.55077E-009	0.00000E+000	-5.32866E-005	0.00000E+000	8	..ch.......	1564.21
	3896	3896	-4.98752E-002	7.90417E-009	0.00000E+000	-5.32866E-005	0.00000E+000	8	..ch.......	1563.92
	3904	3904	-4.99550E-002	3.07916E-009	0.00000E+000	-5.32866E-005	0.00000E+000	8	..ch.......	1564.30
	3912	3912	-4.95296E-002	3.69404E-009	0.00000E+000	-5.32866E-005	0.00000E+000	8	..ch.......	1564.02
	3920	3920	-5.00151E-002	3.85756E-009	0.00000E+000	-5.32866E-005	0.00000E+000	8	..ch.......	1564.02
	3928	3928	-5.19783E-002	4.31948E-009	0.00000E+000	-5.32866E-005	0.00000E+000	8	..ch.......	1563.92
	3936	3936	-4.88938E-002	2.46011E-009	0.00000E+000	-5.32866E-005	0.00000E+000	8	..ch.......	1563.83
	3944	3944	-4.73697E-002	2.45678E-009	0.00000E+000	-5.32866E-005	0.00000E+000	8	..ch.......	1563.92
	3952	3952	-4.59975E-002	4.23382E-009	0.00000E+000	-5.32866E-005	0.00000E+000	8	..ch.......	1563.92
	3960	3960	-4.69968E-002	3.11754E-009	0.00000E+000	-5.32866E-005	0.00000E+000	8	..ch.......	1564.21
	3968	3968	-4.70294E-002	2.93622E-009	0.00000E+000	-5.32866E-005	0.00000E+000	8	..ch.......	1564.02
	3976	3976	-4.73959E-002	2.85390E-009	0.00000E+000	-5.32866E-005	0.00000E+000	8	..ch.......	1564.02
	3984	3984	-4.90372E-002	5.66047E-009	0.00000E+000	-5.32866E-005	0.00000E+000	8	..ch.......	1563.92
	3992	3992	-4.90389E-002	5.75530E-009	0.00000E+000	-5.32866E-005	0.00000E+000	8	..ch.......	1564.11
	4000	4000	-4.98060E-002	3.30943E-009	0.00000E+000	-5.32866E-005	0.00000E+000	8	..ch.......	1563.92