File: Battery Data/Gamry Data/LiB Cyclic Test/CHARGE_DISCHARGE/CHARGE_1.DTA
EXPLAIN
TAG	PWR800_CHARGE
TITLE	LABEL	PWR Cyclic Charge Discharge - Charge Step	Test &Identifier
DATE	LABEL	5/3/2024	Date
TIME	LABEL	10:46:54	Time
NOTES	NOTES	1	&Notes...
	EEMB 3.7V LIR2025 coin battery.
PSTAT	PSTAT	IFC1010-39159	Potentiostat
CAPACITY	QUANT	4.00000E-002	Capacity (A-hr)
CELLTYPE	SELECTOR	1	&Cell Type
WORKINGCONNECTION	SELECTOR	0	&Working Lead
MAXCHARGETIME	VARIABLEANDUNITS	1.08000E+004	s	3.00000E+000	hour(s)	Max &Charge Time
CHARGEMODE	MULTIPARAM	0	2.00000E-002	Charge Mode	Constant Current	Amp(s)
CHARGECURRENT	QUANT	0.02	Charge Current (A)
VOLTAGEFINISH	TWOPARAM	F	1.00000E-003	3.60000E+003	&Voltage Finish	 I (A) < 	Max Time(s)
SAMPLETIME	QUANT	5.00000E+000	Sa&mple Period (s)
CHARGESTOPAT1	MULTIPARAM	2	4.00000E+000	Charge Stop At &1	|Voltage| > Limit	V
CHARGESTOPAT2	MULTIPARAM	0	0.00000E+000	Charge Stop At &2	None	N/A
AESBHCSELECTOR	TOGGLE	F	Save Both Half Cells
IRCOMP	TOGGLE	F	IR &Measure
EOC	QUANT	0	Open Circuit (V)
SEQUENCER	TOGGLE	TRUE	Run as Sequence
PSTATMODEL	IQUANT	64	Pstat Model
PSTATSECTION	LABEL	IFC1010-39159	Pstat Section
PSTATSERIALNO	LABEL	39159	Pstat Serial Number
CTRLMODE	IQUANT	0	Control Mode
ELECTROMETER	IQUANT	0	RE=0 or CS=1
IESTAB	IQUANT	0	I/E Stability
CASPEED	IQUANT	4	Control Amp Speed
CONVENTION	IQUANT	1	Current Convention
ICHRANGE	IQUANT	2	Ich Range
ICHRANGEMODE	TOGGLE	T	Ich Auto Range
ICHOFFSETENABLE	TOGGLE	F	Ich Offset Enable
ICHOFFSET	QUANT	0	Ich Offset (V)
ICHFILTER	IQUANT	1	Ich Filter
VCHRANGE	IQUANT	3	Vch Range
VCHRANGEMODE	TOGGLE	T	Vch Auto Range
VCHOFFSETENABLE	TOGGLE	F	Vch Offset Enable
VCHOFFSET	QUANT	0	Vch Offset (V)
VCHFILTER	IQUANT	1	Vch Filter
IERANGELOWERLIMIT	IQUANT	7	I/E Range Lower Limit
IERANGEMODE	TOGGLE	F	I/E AutoRange
IERANGE	IQUANT	11	I/E Range
ACHSELECT	IQUANT	0	Ach Select
ACHRANGE	IQUANT	2	Ach Range
ACHOFFSETENABLE	TOGGLE	F	Ach Offset Enable
ACHOFFSET	QUANT	0	Ach Offset (V)
ACHFILTER	IQUANT	1	Ach Filter
SENSECABLEID	IQUANT	14	Sense Cable ID
PWRCABLEID	IQUANT	14	Power Cable ID
DCCALDATE	LABEL	4/24/2024	DC Calibration Date
ACCALDATE	LABEL	3/22/2024	AC Calibration Date
FRAMEWORKVERSION	LABEL	7.10.3	Framework Version
INSTRUMENTVERSION	LABEL	4.91	Instrument Version
COMMVERSION	LABEL	3.10	Communications Version
CPUPLDVERSION	LABEL	2.50	CPU PLD Version
CTRLPLDVERSION	LABEL	0.00	CTRL PLD Version
PSTATPLDVERSION	LABEL	0.00	PSTAT PLD Version
CURVE	TABLE	946
	Pt	T	Vf	Im	Vu	Pwr	Sig	Ach	Temp	IERange	Over
	#	s	V	A	V	W	V	V	deg C	#	bits
	0	5	3.44496E+000	2.00001E-002	0.00000E+000	6.88996E-002	6.00386E-001	0.00000E+000	1.56468E+003	11	...........
	3	20	3.50427E+000	2.00001E-002	0.00000E+000	7.00858E-002	6.00386E-001	0.00000E+000	1.56468E+003	11	...........
	6	35	3.54044E+000	2.00001E-002	0.00000E+000	7.08091E-002	6.00386E-001	0.00000E+000	1.56468E+003	11	...........
	9	50	3.56788E+000	2.00001E-002	0.00000E+000	7.13580E-002	6.00386E-001	0.00000E+000	1.56468E+003	11	...........
	12	65	3.59043E+000	2.00001E-002	0.00000E+000	7.18090E-002	6.00386E-001	0.00000E+000	1.56463E+003	11	...........
	15	80	3.60966E+000	2.00001E-002	0.00000E+000	7.21936E-002	6.00386E-001	0.00000E+000	1.56463E+003	11	...........
	18	95	3.59078E+000	2.00005E-002	0.00000E+000	7.18173E-002	6.00386E-001	0.00000E+000	1.56468E+003	11	...........
	21	110	3.60603E+000	2.00005E-002	0.00000E+000	7.21224E-002	6.00386E-001	0.00000E+000	1.56468E+003	11	...........
	24	125	3.61999E+000	2.00005E-002	0.00000E+000	7.24016E-002	6.00386E-001	0.00000E+000	1.56468E+003	11	...........
	27	140	3.63278E+000	2.00005E-002	0.00000E+000	7.26574E-002	6.00386E-001	0.00000E+000	1.56468E+003	11	...........
	30	155	3.64477E+000	2.00005E-002	0.00000E+000	7.28970E-002	6.00386E-001	0.00000E+000	1.56468E+003	11	...........
	33	170	3.65584E+000	2.00004E-002	0.00000E+000	7.31184E-002	6.00386E-001	0.00000E+000	1.56463E+003	11	...........
	36	185	3.66628E+000	2.00004E-002	0.00000E+000	7.33269E-002	6.00386E-001	0.00000E+000	1.56468E+003	11	...........
	39	200	3.67606E+000	2.00004E-002	0.00000E+000	7.35226E-002	6.00386E-001	0.00000E+000	1.56468E+003	11	...........
	42	215	3.68534E+000	2.00005E-002	0.00000E+000	7.37085E-002	6.00386E-001	0.00000E+000	1.56468E+003	11	...........
	45	230	3.69417E+000	2.00006E-002	0.00000E+000	7.38856E-002	6.00386E-001	0.00000E+000	1.56468E+003	11	...........
	48	245	3.70244E+000	2.00005E-002	0.00000E+000	7.40509E-002	6.00386E-001	0.00000E+000	1.56468E+003	11	...........
	51	260	3.71030E+000	2.00004E-002	0.00000E+000	7.42077E-002	6.00386E-001	0.00000E+000	1.56468E+003	11	...........
	54	275	3.71778E+000	2.00005E-002	0.00000E+000	7.43574E-002	6.00386E-001	0.00000E+000	1.56468E+003	11	...........
	57	290	3.72478E+000	2.00004E-002	0.00000E+000	7.44971E-002	6.00386E-001	0.00000E+000	1.56467E+003	11	...........
	60	305	3.73138E+000	2.00005E-002	0.00000E+000	7.46294E-002	6.00386E-001	0.00000E+000	1.56468E+003	11	...........
	63	320	3.73750E+000	2.00005E-002	0.00000E+000	7.47518E-002	6.00386E-001	0.00000E+000	1.56468E+003	11	...........
	66	335	3.74317E+000	2.00004E-002	0.00000E+000	7.48648E-002	6.00386E-001	0.00000E+000	1.56468E+003	11	...........
	69	350	3.74816E+000	2.00004E-002	0.00000E+000	7.49648E-002	6.00386E-001	0.00000E+000	1.56468E+003	11	...........
	72	365	3.75240E+000	2.00004E-002	0.00000E+000	7.50496E-002	6.00386E-001	0.00000E+000	1.56468E+003	11	...........
	75	380	3.75590E+000	2.00005E-002	0.00000E+000	7.51199E-002	6.00386E-001	0.00000E+000	1.56463E+003	11	...........
	78	395	3.75862E+000	2.00005E-002	0.00000E+000	7.51741E-002	6.00386E-001	0.00000E+000	1.56468E+003	11	...........
	81	410	3.76068E+000	2.00005E-002	0.00000E+000	7.52155E-002	6.00386E-001	0.00000E+000	1.56468E+003	11	...........
	84	425	3.76225E+000	2.00005E-002	0.00000E+000	7.52467E-002	6.00386E-001	0.00000E+000	1.56468E+003	11	...........
	87	440	3.76346E+000	2.00005E-002	0.00000E+000	7.52709E-002	6.00386E-001	0.00000E+000	1.56468E+003	11	...........
	90	455	3.76444E+000	2.00005E-002	0.00000E+000	7.52908E-002	6.00386E-001	0.00000E+000	1.56468E+003	11	...........
	93	470	3.76529E+000	2.00005E-002	0.00000E+000	7.53077E-002	6.00386E-001	0.00000E+000	1.56468E+003	11	...........
	96	485	3.76608E+000	2.00006E-002	0.00000E+000	7.53238E-002	6.00386E-001	0.00000E+000	1.56468E+003	11	...........
	99	500	3.76679E+000	2.00005E-002	0.00000E+000	7.53378E-002	6.00386E-001	0.00000E+000	1.56468E+003	11	...........
	102	515	3.76747E+000	2.00004E-002	0.00000E+000	7.53510E-002	6.00386E-001	0.00000E+000	1.56468E+003	11	...........
	105	530	3.76816E+000	2.00005E-002	0.00000E+000	7.53650E-002	6.00386E-001	0.00000E+000	1.56468E+003	11	...........
	108	545	3.76880E+000	2.00005E-002	0.00000E+000	7.53780E-002	6.00386E-001	0.00000E+000	1.56468E+003	11	...........
	111	560	3.76944E+000	2.00005E-002	0.00000E+000	7.53909E-002	6.00386E-001	0.00000E+000	1.56468E+003	11	...........
	114	575	3.77007E+000	2.00005E-002	0.00000E+000	7.54032E-002	6.00386E-001	0.00000E+000	1.56468E+003	11	...........
	117	590	3.77068E+000	2.00005E-002	0.00000E+000	7.54155E-002	6.00386E-001	0.00000E+000	1.56467E+003	11	...........
	120	605	3.77139E+000	2.00037E-002	0.00000E+000	7.54418E-002	6.00386E-001	0.00000E+000	1.56468E+003	11	...........
	123	620	3.77211E+000	2.00009E-002	0.00000E+000	7.54456E-002	6.00386E-001	0.00000E+000	1.56468E+003	11	...........
	126	635	3.77283E+000	2.00026E-002	0.00000E+000	7.54663E-002	6.00386E-001	0.00000E+000	1.56468E+003	11	...........
	129	650	3.77355E+000	2.00018E-002	0.00000E+000	7.54779E-002	6.00386E-001	0.00000E+000	1.56463E+003	11	...........
	132	665	3.77426E+000	2.00014E-002	0.00000E+000	7.54907E-002	6.00386E-001	0.00000E+000	1.56467E+003	11	...........
	135	680	3.77507E+000	2.00015E-002	0.00000E+000	7.55070E-002	6.00386E-001	0.00000E+000	1.56468E+003	11	...........
	138	695	3.77588E+000	2.00008E-002	0.00000E+000	7.55207E-002	6.00386E-001	0.00000E+000	1.56468E+003	11	...........
	141	710	3.77677E+000	2.00009E-002	0.00000E+000	7.55386E-002	6.00386E-001	0.00000E+000	1.56468E+003	11	...........
	144	725	3.77764E+000	2.00007E-002	0.00000E+000	7.55555E-002	6.00386E-001	0.00000E+000	1.56468E+003	11	...........
	147	740	3.77864E+000	2.00028E-002	0.00000E+000	7.55835E-002	6.00386E-001	0.00000E+000	1.56468E+003	11	...........
	150	755	3.77966E+000	2.00016E-002	0.00000E+000	7.55991E-002	6.00386E-001	0.00000E+000	1.56468E+003	11	...........
	153	770	3.78070E+000	2.00031E-002	0.00000E+000	7.56258E-002	6.00386E-001	0.00000E+000	1.56468E+003	11	...........
	156	785	3.78179E+000	2.00026E-002	0.00000E+000	7.56457E-002	6.00386E-001	0.00000E+000	1.56468E+003	11	...........
	159	800	3.78286E+000	2.00016E-002	0.00000E+000	7.56633E-002	6.00386E-001	0.00000E+000	1.56468E+003	11	...........
	162	815	3.78395E+000	2.00029E-002	0.00000E+000	7.56901E-002	6.00386E-001	0.00000E+000	1.56468E+003	11	...........
	165	830	3.78508E+000	2.00034E-002	0.00000E+000	7.57146E-002	6.00386E-001	0.00000E+000	1.56468E+003	11	...........
	168	845	3.78619E+000	2.00014E-002	0.00000E+000	7.57290E-002	6.00386E-001	0.00000E+000	1.56468E+003	11	...........
	171	860	3.78733E+000	2.00015E-002	0.00000E+000	7.57522E-002	6.00386E-001	0.00000E+000	1.56468E+003	11	...........
	174	875	3.78864E+000	2.00009E-002	0.00000E+000	7.57761E-002	6.00386E-001	0.00000E+000	1.56467E+003	11	...........
	177	890	3.78982E+000	2.00020E-002	0.00000E+000	7.58039E-002	6.00386E-001	0.00000E+000	1.56467E+003	11	...........
	180	905	3.79117E+000	2.00018E-002	0.00000E+000	7.58300E-002	6.00386E-001	0.00000E+000	1.56467E+003	11	...........
	183	920	3.79244E+000	2.00020E-002	0.00000E+000	7.58562E-002	6.00386E-001	0.00000E+000	1.56468E+003	11	...........
	186	935	3.79372E+000	2.00017E-002	0.00000E+000	7.58808E-002	6.00386E-001	0.00000E+000	1.56468E+003	11	...........
	189	950	3.79500E+000	2.00037E-002	0.00000E+000	7.59140E-002	6.00386E-001	0.00000E+000	1.56468E+003	11	...........
	192	965	3.79626E+000	2.00014E-002	0.00000E+000	7.59305E-002	6.00386E-001	0.00000E+000	1.56468E+003	11	...........
	195	980	3.79753E+000	2.00009E-002	0.00000E+000	7.59543E-002	6.00386E-001	0.00000E+000	1.56468E+003	11	...........
	198	995	3.79885E+000	2.00009E-002	0.00000E+000	7.59803E-002	6.00386E-001	0.00000E+000	1.56468E+003	11	...........
	201	1010	3.80013E+000	2.00009E-002	0.00000E+000	7.60061E-002	6.00386E-001	0.00000E+000	1.56467E+003	11	...........
	204	1025	3.80148E+000	2.00008E-002	0.00000E+000	7.60325E-002	6.00386E-001	0.00000E+000	1.56468E+003	11	...........
	207	1040	3.80280E+000	2.00008E-002	0.00000E+000	7.60590E-002	6.00386E-001	0.00000E+000	1.56468E+003	11	...........
	210	1055	3.80411E+000	2.00009E-002	0.00000E+000	7.60856E-002	6.00386E-001	0.00000E+000	1.56468E+003	11	...........
	213	1070	3.80547E+000	2.00009E-002	0.00000E+000	7.61129E-002	6.00386E-001	0.00000E+000	1.56468E+003	11	...........
	216	1085	3.80673E+000	2.00008E-002	0.00000E+000	7.61377E-002	6.00386E-001	0.00000E+000	1.56468E+003	11	...........
	219	1100	3.80805E+000	2.00009E-002	0.00000E+000	7.61644E-002	6.00386E-001	0.00000E+000	1.56468E+003	11	...........
	222	1115	3.80940E+000	2.00009E-002	0.00000E+000	7.61912E-002	6.00386E-001	0.00000E+000	1.56468E+003	11	...........
	225	1130	3.81075E+000	2.00008E-002	0.00000E+000	7.62181E-002	6.00386E-001	0.00000E+000	1.56468E+003	11	...........
	228	1145	3.81207E+000	2.00009E-002	0.00000E+000	7.62448E-002	6.00386E-001	0.00000E+000	1.56468E+003	11	...........
	231	1160	3.81337E+000	2.00009E-002	0.00000E+000	7.62709E-002	6.00386E-001	0.00000E+000	1.56468E+003	11	...........
	234	1175	3.81469E+000	2.00008E-002	0.00000E+000	7.62968E-002	6.00386E-001	0.00000E+000	1.56468E+003	11	...........
	237	1190	3.81594E+000	2.00009E-002	0.00000E+000	7.63222E-002	6.00386E-001	0.00000E+000	1.56468E+003	11	...........
	240	1205	3.81721E+000	2.00012E-002	0.00000E+000	7.63487E-002	6.00386E-001	0.00000E+000	1.56468E+003	11	...........
	243	1220	3.81840E+000	2.00028E-002	0.00000E+000	7.63785E-002	6.00386E-001	0.00000E+000	1.56468E+003	11	...........
	246	1235	3.81957E+000	2.00021E-002	0.00000E+000	7.63993E-002	6.00386E-001	0.00000E+000	1.56468E+003	11	...........
	249	1250	3.82085E+000	2.00008E-002	0.00000E+000	7.64201E-002	6.00386E-001	0.00000E+000	1.56468E+003	11	...........
	252	1265	3.82216E+000	2.00008E-002	0.00000E+000	7.64462E-002	6.00386E-001	0.00000E+000	1.56468E+003	11	...........
	255	1280	3.82347E+000	2.00008E-002	0.00000E+000	7.64725E-002	6.00386E-001	0.00000E+000	1.56468E+003	11	...........
	258	1295	3.82477E+000	2.00008E-002	0.00000E+000	7.64983E-002	6.00386E-001	0.00000E+000	1.56468E+003	11	...........
	261	1310	3.82599E+000	2.00008E-002	0.00000E+000	7.65228E-002	6.00386E-001	0.00000E+000	1.56467E+003	11	...........
	264	1325	3.82722E+000	2.00008E-002	0.00000E+000	7.65472E-002	6.00386E-001	0.00000E+000	1.56468E+003	11	...........
	267	1340	3.82847E+000	2.00011E-002	0.00000E+000	7.65737E-002	6.00386E-001	0.00000E+000	1.56468E+003	11	...........
	270	1355	3.82969E+000	2.00007E-002	0.00000E+000	7.65966E-002	6.00386E-001	0.00000E+000	1.56468E+003	11	...........
	273	1370	3.83084E+000	2.00008E-002	0.00000E+000	7.66198E-002	6.00386E-001	0.00000E+000	1.56468E+003	11	...........
	276	1385	3.83201E+000	2.00012E-002	0.00000E+000	7.66449E-002	6.00386E-001	0.00000E+000	1.56463E+003	11	...........
	279	1400	3.83322E+000	2.00012E-002	0.00000E+000	7.66693E-002	6.00386E-001	0.00000E+000	1.56468E+003	11	...........
	282	1415	3.83449E+000	2.00008E-002	0.00000E+000	7.66928E-002	6.00386E-001	0.00000E+000	1.56468E+003	11	...........
	285	1430	3.83577E+000	2.00009E-002	0.00000E+000	7.67189E-002	6.00386E-001	0.00000E+000	1.56463E+003	11	...........
	288	1445	3.83705E+000	2.00027E-002	0.00000E+000	7.67513E-002	6.00386E-001	0.00000E+000	1.56468E+003	11	...........
	291	1460	3.83826E+000	2.00025E-002	0.00000E+000	7.67749E-002	6.00386E-001	0.00000E+000	1.56468E+003	11	...........
	294	1475	3.83943E+000	2.00009E-002	0.00000E+000	7.67920E-002	6.00386E-001	0.00000E+000	1.56468E+003	11	...........
	297	1490	3.84054E+000	2.00008E-002	0.00000E+000	7.68140E-002	6.00386E-001	0.00000E+000	1.56468E+003	11	...........
	300	1505	3.84167E+000	2.00007E-002	0.00000E+000	7.68363E-002	6.00386E-001	0.00000E+000	1.56468E+003	11	...........
	303	1520	3.84287E+000	2.00008E-002	0.00000E+000	7.68604E-002	6.00386E-001	0.00000E+000	1.56468E+003	11	...........
	306	1535	3.84389E+000	2.00008E-002	0.00000E+000	7.68807E-002	6.00386E-001	0.00000E+000	1.56468E+003	11	...........
	309	1550	3.84493E+000	2.00008E-002	0.00000E+000	7.69017E-002	6.00386E-001	0.00000E+000	1.56468E+003	11	...........
	312	1565	3.84596E+000	2.00007E-002	0.00000E+000	7.69220E-002	6.00386E-001	0.00000E+000	1.56468E+003	11	...........
	315	1580	3.84698E+000	2.00036E-002	0.00000E+000	7.69534E-002	6.00386E-001	0.00000E+000	1.56468E+003	11	...........
	318	1595	3.84802E+000	2.00035E-002	0.00000E+000	7.69738E-002	6.00386E-001	0.00000E+000	1.56468E+003	11	...........
	321	1610	3.84904E+000	2.00038E-002	0.00000E+000	7.69955E-002	6.00386E-001	0.00000E+000	1.56468E+003	11	...........
	324	1625	3.85007E+000	2.00037E-002	0.00000E+000	7.70159E-002	6.00386E-001	0.00000E+000	1.56468E+003	11	...........
	327	1640	3.85108E+000	2.00034E-002	0.00000E+000	7.70345E-002	6.00386E-001	0.00000E+000	1.56467E+003	11	...........
	330	1655	3.85216E+000	2.00026E-002	0.00000E+000	7.70532E-002	6.00386E-001	0.00000E+000	1.56467E+003	11	...........
	333	1670	3.85328E+000	2.00007E-002	0.00000E+000	7.70683E-002	6.00386E-001	0.00000E+000	1.56468E+003	11	...........
	336	1685	3.85430E+000	2.00007E-002	0.00000E+000	7.70887E-002	6.00386E-001	0.00000E+000	1.56463E+003	11	...........
	339	1700	3.85518E+000	2.00007E-002	0.00000E+000	7.71064E-002	6.00386E-001	0.00000E+000	1.56468E+003	11	...........
	342	1715	3.85597E+000	2.00007E-002	0.00000E+000	7.71222E-002	6.00386E-001	0.00000E+000	1.56468E+003	11	...........
	345	1730	3.85682E+000	2.00008E-002	0.00000E+000	7.71395E-002	6.00386E-001	0.00000E+000	1.56468E+003	11	...........
	348	1745	3.85772E+000	2.00008E-002	0.00000E+000	7.71575E-002	6.00386E-001	0.00000E+000	1.56468E+003	11	...........
	351	1760	3.85868E+000	2.00008E-002	0.00000E+000	7.71765E-002	6.00386E-001	0.00000E+000	1.56468E+003	11	...........
	354	1775	3.85961E+000	2.00007E-002	0.00000E+000	7.71950E-002	6.00386E-001	0.00000E+000	1.56467E+003	11	...........
	357	1790	3.86050E+000	2.00008E-002	0.00000E+000	7.72130E-002	6.00386E-001	0.00000E+000	1.56468E+003	11	...........
	360	1805	3.86141E+000	2.00006E-002	0.00000E+000	7.72307E-002	6.00386E-001	0.00000E+000	1.56463E+003	11	...........
	363	1820	3.86239E+000	2.00007E-002	0.00000E+000	7.72505E-002	6.00386E-001	0.00000E+000	1.56468E+003	11	...........
	366	1835	3.86340E+000	2.00007E-002	0.00000E+000	7.72707E-002	6.00386E-001	0.00000E+000	1.56463E+003	11	...........
	369	1850	3.86446E+000	2.00008E-002	0.00000E+000	7.72922E-002	6.00386E-001	0.00000E+000	1.56468E+003	11	...........
	372	1865	3.86548E+000	2.00007E-002	0.00000E+000	7.73121E-002	6.00386E-001	0.00000E+000	1.56468E+003	11	...........
	375	1880	3.86643E+000	2.00008E-002	0.00000E+000	7.73316E-002	6.00386E-001	0.00000E+000	1.56468E+003	11	...........
	378	1895	3.86730E+000	2.00007E-002	0.00000E+000	7.73485E-002	6.00386E-001	0.00000E+000	1.56463E+003	11	...........
	381	1910	3.86815E+000	2.00007E-002	0.00000E+000	7.73655E-002	6.00386E-001	0.00000E+000	1.56468E+003	11	...........
	384	1925	3.86894E+000	2.00009E-002	0.00000E+000	7.73821E-002	6.00386E-001	0.00000E+000	1.56468E+003	11	...........
	387	1940	3.86968E+000	2.00007E-002	0.00000E+000	7.73965E-002	6.00386E-001	0.00000E+000	1.56468E+003	11	...........
	390	1955	3.87047E+000	2.00007E-002	0.00000E+000	7.74123E-002	6.00386E-001	0.00000E+000	1.56468E+003	11	...........
	393	1970	3.87127E+000	2.00021E-002	0.00000E+000	7.74334E-002	6.00386E-001	0.00000E+000	1.56468E+003	11	...........
	396	1985	3.87206E+000	2.00007E-002	0.00000E+000	7.74440E-002	6.00386E-001	0.00000E+000	1.56468E+003	11	...........
	399	2000	3.87286E+000	2.00007E-002	0.00000E+000	7.74599E-002	6.00386E-001	0.00000E+000	1.56468E+003	11	...........
	402	2015	3.87364E+000	2.00007E-002	0.00000E+000	7.74756E-002	6.00386E-001	0.00000E+000	1.56463E+003	11	...........
	405	2030	3.87439E+000	2.00007E-002	0.00000E+000	7.74907E-002	6.00386E-001	0.00000E+000	1.56468E+003	11	...........
	408	2045	3.87504E+000	2.00007E-002	0.00000E+000	7.75035E-002	6.00386E-001	0.00000E+000	1.56468E+003	11	...........
	411	2060	3.87565E+000	2.00008E-002	0.00000E+000	7.75160E-002	6.00386E-001	0.00000E+000	1.56468E+003	11	...........
	414	2075	3.87625E+000	2.00008E-002	0.00000E+000	7.75283E-002	6.00386E-001	0.00000E+000	1.56468E+003	11	...........
	417	2090	3.87694E+000	2.00007E-002	0.00000E+000	7.75417E-002	6.00386E-001	0.00000E+000	1.56468E+003	11	...........
	420	2105	3.87762E+000	2.00007E-002	0.00000E+000	7.75551E-002	6.00386E-001	0.00000E+000	1.56468E+003	11	...........
	423	2120	3.87815E+000	2.00007E-002	0.00000E+000	7.75657E-002	6.00386E-001	0.00000E+000	1.56468E+003	11	...........
	426	2135	3.87868E+000	2.00007E-002	0.00000E+000	7.75763E-002	6.00386E-001	0.00000E+000	1.56468E+003	11	...........
	429	2150	3.87913E+000	2.00026E-002	0.00000E+000	7.75929E-002	6.00386E-001	0.00000E+000	1.56468E+003	11	...........
	432	2165	3.87958E+000	2.00022E-002	0.00000E+000	7.76002E-002	6.00386E-001	0.00000E+000	1.56468E+003	11	...........
	435	2180	3.87998E+000	2.00019E-002	0.00000E+000	7.76070E-002	6.00386E-001	0.00000E+000	1.56468E+003	11	...........
	438	2195	3.88032E+000	2.00012E-002	0.00000E+000	7.76110E-002	6.00386E-001	0.00000E+000	1.56468E+003	11	...........
	441	2210	3.88067E+000	2.00008E-002	0.00000E+000	7.76166E-002	6.00386E-001	0.00000E+000	1.56468E+003	11	...........
	444	2225	3.88100E+000	2.00008E-002	0.00000E+000	7.76232E-002	6.00386E-001	0.00000E+000	1.56468E+003	11	...........
	447	2240	3.88131E+000	2.00029E-002	0.00000E+000	7.76374E-002	6.00386E-001	0.00000E+000	1.56468E+003	11	...........
	450	2255	3.88166E+000	2.00007E-002	0.00000E+000	7.76360E-002	6.00386E-001	0.00000E+000	1.56468E+003	11	...........
	453	2270	3.88202E+000	2.00012E-002	0.00000E+000	7.76453E-002	6.00386E-001	0.00000E+000	1.56468E+003	11	...........
	456	2285	3.88241E+000	2.00008E-002	0.00000E+000	7.76511E-002	6.00386E-001	0.00000E+000	1.56466E+003	11	...........
	459	2300	3.88284E+000	2.00007E-002	0.00000E+000	7.76594E-002	6.00386E-001	0.00000E+000	1.56463E+003	11	...........
	462	2315	3.88327E+000	2.00008E-002	0.00000E+000	7.76682E-002	6.00386E-001	0.00000E+000	1.56468E+003	11	...........
	465	2330	3.88365E+000	2.00008E-002	0.00000E+000	7.76759E-002	6.00386E-001	0.00000E+000	1.56463E+003	11	...........
	468	2345	3.88406E+000	2.00007E-002	0.00000E+000	7.76841E-002	6.00386E-001	0.00000E+000	1.56468E+003	11	...........
	471	2360	3.88452E+000	2.00008E-002	0.00000E+000	7.76933E-002	6.00386E-001	0.00000E+000	1.56467E+003	11	...........
	474	2375	3.88491E+000	2.00029E-002	0.00000E+000	7.77093E-002	6.00386E-001	0.00000E+000	1.56467E+003	11	...........
	477	2390	3.88525E+000	2.00027E-002	0.00000E+000	7.77155E-002	6.00386E-001	0.00000E+000	1.56468E+003	11	...........
	480	2405	3.88557E+000	2.00028E-002	0.00000E+000	7.77221E-002	6.00386E-001	0.00000E+000	1.56468E+003	11	...........
	483	2420	3.88587E+000	2.00027E-002	0.00000E+000	7.77280E-002	6.00386E-001	0.00000E+000	1.56468E+003	11	...........
	486	2435	3.88624E+000	2.00027E-002	0.00000E+000	7.77354E-002	6.00386E-001	0.00000E+000	1.56468E+003	11	...........
	489	2450	3.88666E+000	2.00031E-002	0.00000E+000	7.77453E-002	6.00386E-001	0.00000E+000	1.56468E+003	11	...........
	492	2465	3.88711E+000	2.00037E-002	0.00000E+000	7.77566E-002	6.00386E-001	0.00000E+000	1.56468E+003	11	...........
	495	2480	3.88757E+000	2.00036E-002	0.00000E+000	7.77653E-002	6.00386E-001	0.00000E+000	1.56468E+003	11	...........
	498	2495	3.88804E+000	2.00036E-002	0.00000E+000	7.77750E-002	6.00386E-001	0.00000E+000	1.56468E+003	11	...........
	501	2510	3.88847E+000	2.00037E-002	0.00000E+000	7.77836E-002	6.00386E-001	0.00000E+000	1.56468E+003	11	...........
	504	2525	3.88882E+000	2.00037E-002	0.00000E+000	7.77907E-002	6.00386E-001	0.00000E+000	1.56468E+003	11	...........
	507	2540	3.88915E+000	2.00036E-002	0.00000E+000	7.77970E-002	6.00386E-001	0.00000E+000	1.56468E+003	11	...........
	510	2555	3.88949E+000	2.00036E-002	0.00000E+000	7.78038E-002	6.00386E-001	0.00000E+000	1.56468E+003	11	...........
	513	2570	3.88986E+000	2.00037E-002	0.00000E+000	7.78115E-002	6.00386E-001	0.00000E+000	1.56468E+003	11	...........
	516	2585	3.89023E+000	2.00037E-002	0.00000E+000	7.78190E-002	6.00386E-001	0.00000E+000	1.56468E+003	11	...........
	519	2600	3.89065E+000	2.00037E-002	0.00000E+000	7.78274E-002	6.00386E-001	0.00000E+000	1.56468E+003	11	...........
	522	2615	3.89113E+000	2.00038E-002	0.00000E+000	7.78376E-002	6.00386E-001	0.00000E+000	1.56468E+003	11	...........
	525	2630	3.89163E+000	2.00037E-002	0.00000E+000	7.78471E-002	6.00386E-001	0.00000E+000	1.56468E+003	11	...........
	528	2645	3.89214E+000	2.00036E-002	0.00000E+000	7.78570E-002	6.00386E-001	0.00000E+000	1.56468E+003	11	...........
	531	2660	3.89259E+000	2.00036E-002	0.00000E+000	7.78657E-002	6.00386E-001	0.00000E+000	1.56467E+003	11	...........
	534	2675	3.89300E+000	2.00037E-002	0.00000E+000	7.78743E-002	6.00386E-001	0.00000E+000	1.56468E+003	11	...........
	537	2690	3.89337E+000	2.00036E-002	0.00000E+000	7.78814E-002	6.00386E-001	0.00000E+000	1.56463E+003	11	...........
	540	2705	3.89379E+000	2.00036E-002	0.00000E+000	7.78899E-002	6.00386E-001	0.00000E+000	1.56468E+003	11	...........
	543	2720	3.89422E+000	2.00035E-002	0.00000E+000	7.78981E-002	6.00386E-001	0.00000E+000	1.56468E+003	11	...........
	546	2735	3.89467E+000	2.00036E-002	0.00000E+000	7.79074E-002	6.00386E-001	0.00000E+000	1.56468E+003	11	...........
	549	2750	3.89515E+000	2.00036E-002	0.00000E+000	7.79170E-002	6.00386E-001	0.00000E+000	1.56468E+003	11	...........
	552	2765	3.89560E+000	2.00037E-002	0.00000E+000	7.79262E-002	6.00386E-001	0.00000E+000	1.56468E+003	11	...........
	555	2780	3.89607E+000	2.00036E-002	0.00000E+000	7.79353E-002	6.00386E-001	0.00000E+000	1.56468E+003	11	...........
	558	2795	3.89656E+000	2.00036E-002	0.00000E+000	7.79453E-002	6.00386E-001	0.00000E+000	1.56468E+003	11	...........
	561	2810	3.89699E+000	2.00035E-002	0.00000E+000	7.79535E-002	6.00386E-001	0.00000E+000	1.56468E+003	11	...........
	564	2825	3.89738E+000	2.00036E-002	0.00000E+000	7.79616E-002	6.00386E-001	0.00000E+000	1.56468E+003	11	...........
	567	2840	3.89777E+000	2.00035E-002	0.00000E+000	7.79690E-002	6.00386E-001	0.00000E+000	1.56468E+003	11	...........
	570	2855	3.89819E+000	2.00035E-002	0.00000E+000	7.79774E-002	6.00386E-001	0.00000E+000	1.56473E+003	11	...........
	573	2870	3.89860E+000	2.00035E-002	0.00000E+000	7.79855E-002	6.00386E-001	0.00000E+000	1.56468E+003	11	...........
	576	2885	3.89902E+000	2.00033E-002	0.00000E+000	7.79935E-002	6.00386E-001	0.00000E+000	1.56468E+003	11	...........
	579	2900	3.89945E+000	2.00033E-002	0.00000E+000	7.80021E-002	6.00386E-001	0.00000E+000	1.56468E+003	11	...........
	582	2915	3.89999E+000	2.00034E-002	0.00000E+000	7.80131E-002	6.00386E-001	0.00000E+000	1.56463E+003	11	...........
	585	2930	3.90048E+000	2.00026E-002	0.00000E+000	7.80197E-002	6.00386E-001	0.00000E+000	1.56468E+003	11	...........
	588	2945	3.90103E+000	2.00023E-002	0.00000E+000	7.80295E-002	6.00386E-001	0.00000E+000	1.56468E+003	11	...........
	591	2960	3.90165E+000	2.00026E-002	0.00000E+000	7.80431E-002	6.00386E-001	0.00000E+000	1.56468E+003	11	...........
	594	2975	3.90222E+000	2.00022E-002	0.00000E+000	7.80529E-002	6.00386E-001	0.00000E+000	1.56468E+003	11	...........
	597	2990	3.90274E+000	2.00028E-002	0.00000E+000	7.80656E-002	6.00386E-001	0.00000E+000	1.56470E+003	11	...........
	600	3005	3.90322E+000	2.00008E-002	0.00000E+000	7.80675E-002	6.00386E-001	0.00000E+000	1.56468E+003	11	...........
	603	3020	3.90369E+000	2.00007E-002	0.00000E+000	7.80766E-002	6.00386E-001	0.00000E+000	1.56468E+003	11	...........
	606	3035	3.90415E+000	2.00010E-002	0.00000E+000	7.80868E-002	6.00386E-001	0.00000E+000	1.56468E+003	11	...........
	609	3050	3.90473E+000	2.00008E-002	0.00000E+000	7.80976E-002	6.00386E-001	0.00000E+000	1.56468E+003	11	...........
	612	3065	3.90517E+000	2.00007E-002	0.00000E+000	7.81063E-002	6.00386E-001	0.00000E+000	1.56468E+003	11	...........
	615	3080	3.90564E+000	2.00009E-002	0.00000E+000	7.81162E-002	6.00386E-001	0.00000E+000	1.56468E+003	11	...........
	618	3095	3.90610E+000	2.00007E-002	0.00000E+000	7.81248E-002	6.00386E-001	0.00000E+000	1.56468E+003	11	...........
	621	3110	3.90663E+000	2.00010E-002	0.00000E+000	7.81367E-002	6.00386E-001	0.00000E+000	1.56468E+003	11	...........
	624	3125	3.90722E+000	2.00035E-002	0.00000E+000	7.81581E-002	6.00386E-001	0.00000E+000	1.56468E+003	11	...........
	627	3140	3.90778E+000	2.00033E-002	0.00000E+000	7.81684E-002	6.00386E-001	0.00000E+000	1.56468E+003	11	...........
	630	3155	3.90833E+000	2.00021E-002	0.00000E+000	7.81747E-002	6.00386E-001	0.00000E+000	1.56468E+003	11	...........
	633	3170	3.90889E+000	2.00008E-002	0.00000E+000	7.81806E-002	6.00386E-001	0.00000E+000	1.56468E+003	11	...........
	636	3185	3.90945E+000	2.00007E-002	0.00000E+000	7.81917E-002	6.00386E-001	0.00000E+000	1.56468E+003	11	...........
	639	3200	3.91003E+000	2.00009E-002	0.00000E+000	7.82042E-002	6.00386E-001	0.00000E+000	1.56468E+003	11	...........
	642	3215	3.91062E+000	2.00009E-002	0.00000E+000	7.82159E-002	6.00386E-001	0.00000E+000	1.56469E+003	11	...........
	645	3230	3.91124E+000	2.00010E-002	0.00000E+000	7.82286E-002	6.00386E-001	0.00000E+000	1.56468E+003	11	...........
	648	3245	3.91188E+000	2.00008E-002	0.00000E+000	7.82407E-002	6.00386E-001	0.00000E+000	1.56468E+003	11	...........
	651	3260	3.91258E+000	2.00007E-002	0.00000E+000	7.82543E-002	6.00386E-001	0.00000E+000	1.56469E+003	11	...........
	654	3275	3.91323E+000	2.00032E-002	0.00000E+000	7.82773E-002	6.00386E-001	0.00000E+000	1.56468E+003	11	...........
	657	3290	3.91387E+000	2.00028E-002	0.00000E+000	7.82884E-002	6.00386E-001	0.00000E+000	1.56468E+003	11	...........
	660	3305	3.91451E+000	2.00015E-002	0.00000E+000	7.82961E-002	6.00386E-001	0.00000E+000	1.56468E+003	11	...........
	663	3320	3.91512E+000	2.00007E-002	0.00000E+000	7.83050E-002	6.00386E-001	0.00000E+000	1.56468E+003	11	...........
	666	3335	3.91569E+000	2.00007E-002	0.00000E+000	7.83167E-002	6.00386E-001	0.00000E+000	1.56468E+003	11	...........
	669	3350	3.91633E+000	2.00007E-002	0.00000E+000	7.83292E-002	6.00386E-001	0.00000E+000	1.56468E+003	11	...........
	672	3365	3.91695E+000	2.00007E-002	0.00000E+000	7.83418E-002	6.00386E-001	0.00000E+000	1.56468E+003	11	...........
	675	3380	3.91757E+000	2.00007E-002	0.00000E+000	7.83539E-002	6.00386E-001	0.00000E+000	1.56468E+003	11	...........
	678	3395	3.91816E+000	2.00007E-002	0.00000E+000	7.83660E-002	6.00386E-001	0.00000E+000	1.56468E+003	11	...........
	681	3410	3.91879E+000	2.00007E-002	0.00000E+000	7.83787E-002	6.00386E-001	0.00000E+000	1.56468E+003	11	...........
	684	3425	3.91945E+000	2.00013E-002	0.00000E+000	7.83942E-002	6.00386E-001	0.00000E+000	1.56468E+003	11	...........
	687	3440	3.92013E+000	2.00021E-002	0.00000E+000	7.84109E-002	6.00386E-001	0.00000E+000	1.56468E+003	11	...........
	690	3455	3.92079E+000	2.00008E-002	0.00000E+000	7.84187E-002	6.00386E-001	0.00000E+000	1.56468E+003	11	...........
	693	3470	3.92147E+000	2.00006E-002	0.00000E+000	7.84319E-002	6.00386E-001	0.00000E+000	1.56473E+003	11	...........
	696	3485	3.92215E+000	2.00007E-002	0.00000E+000	7.84458E-002	6.00386E-001	0.00000E+000	1.56473E+003	11	...........
	699	3500	3.92281E+000	2.00032E-002	0.00000E+000	7.84687E-002	6.00386E-001	0.00000E+000	1.56468E+003	11	...........
	702	3515	3.92349E+000	2.00033E-002	0.00000E+000	7.84827E-002	6.00386E-001	0.00000E+000	1.56467E+003	11	...........
	705	3530	3.92412E+000	2.00013E-002	0.00000E+000	7.84877E-002	6.00386E-001	0.00000E+000	1.56468E+003	11	...........
	708	3545	3.92479E+000	2.00010E-002	0.00000E+000	7.84998E-002	6.00386E-001	0.00000E+000	1.56467E+003	11	...........
	711	3560	3.92550E+000	2.00012E-002	0.00000E+000	7.85147E-002	6.00386E-001	0.00000E+000	1.56470E+003	11	...........
	714	3575	3.92626E+000	2.00008E-002	0.00000E+000	7.85285E-002	6.00386E-001	0.00000E+000	1.56468E+003	11	...........
	717	3590	3.92706E+000	2.00021E-002	0.00000E+000	7.85493E-002	6.00386E-001	0.00000E+000	1.56473E+003	11	...........
	720	3605	3.92783E+000	2.00025E-002	0.00000E+000	7.85663E-002	6.00386E-001	0.00000E+000	1.56468E+003	11	...........
	723	3620	3.92866E+000	2.00025E-002	0.00000E+000	7.85831E-002	6.00386E-001	0.00000E+000	1.56468E+003	11	...........
	726	3635	3.92947E+000	2.00020E-002	0.00000E+000	7.85974E-002	6.00386E-001	0.00000E+000	1.56468E+003	11	...........
	729	3650	3.93024E+000	2.00010E-002	0.00000E+000	7.86087E-002	6.00386E-001	0.00000E+000	1.56468E+003	11	...........
	732	3665	3.93096E+000	2.00013E-002	0.00000E+000	7.86244E-002	6.00386E-001	0.00000E+000	1.56468E+003	11	...........
	735	3680	3.93173E+000	2.00016E-002	0.00000E+000	7.86409E-002	6.00386E-001	0.00000E+000	1.56468E+003	11	...........
	738	3695	3.93253E+000	2.00015E-002	0.00000E+000	7.86565E-002	6.00386E-001	0.00000E+000	1.56468E+003	11	...........
	741	3710	3.93333E+000	2.00022E-002	0.00000E+000	7.86752E-002	6.00386E-001	0.00000E+000	1.56468E+003	11	...........
	744	3725	3.93411E+000	2.00023E-002	0.00000E+000	7.86910E-002	6.00386E-001	0.00000E+000	1.56468E+003	11	...........
	747	3740	3.93488E+000	2.00022E-002	0.00000E+000	7.87065E-002	6.00386E-001	0.00000E+000	1.56468E+003	11	...........
	750	3755	3.93566E+000	2.00013E-002	0.00000E+000	7.87184E-002	6.00386E-001	0.00000E+000	1.56468E+003	11	...........
	753	3770	3.93645E+000	2.00009E-002	0.00000E+000	7.87325E-002	6.00386E-001	0.00000E+000	1.56468E+003	11	...........
	756	3785	3.93723E+000	2.00038E-002	0.00000E+000	7.87595E-002	6.00386E-001	0.00000E+000	1.56468E+003	11	...........
	759	3800	3.93802E+000	2.00036E-002	0.00000E+000	7.87746E-002	6.00386E-001	0.00000E+000	1.56468E+003	11	...........
	762	3815	3.93882E+000	2.00033E-002	0.00000E+000	7.87895E-002	6.00386E-001	0.00000E+000	1.56470E+003	11	...........
	765	3830	3.93967E+000	2.00032E-002	0.00000E+000	7.88059E-002	6.00386E-001	0.00000E+000	1.56468E+003	11	...........
	768	3845	3.94050E+000	2.00028E-002	0.00000E+000	7.88209E-002	6.00386E-001	0.00000E+000	1.56468E+003	11	...........
	771	3860	3.94132E+000	2.00029E-002	0.00000E+000	7.88380E-002	6.00386E-001	0.00000E+000	1.56469E+003	11	...........
	774	3875	3.94213E+000	2.00022E-002	0.00000E+000	7.88514E-002	6.00386E-001	0.00000E+000	1.56470E+003	11	...........
	777	3890	3.94295E+000	2.00016E-002	0.00000E+000	7.88652E-002	6.00386E-001	0.00000E+000	1.56473E+003	11	...........
	780	3905	3.94377E+000	2.00010E-002	0.00000E+000	7.88793E-002	6.00386E-001	0.00000E+000	1.56469E+003	11	...........
	783	3920	3.94460E+000	2.00008E-002	0.00000E+000	7.88952E-002	6.00386E-001	0.00000E+000	1.56473E+003	11	...........
	786	3935	3.94554E+000	2.00007E-002	0.00000E+000	7.89136E-002	6.00386E-001	0.00000E+000	1.56468E+003	11	...........
	789	3950	3.94641E+000	2.00008E-002	0.00000E+000	7.89312E-002	6.00386E-001	0.00000E+000	1.56468E+003	11	...........
	792	3965	3.94731E+000	2.00040E-002	0.00000E+000	7.89621E-002	6.00386E-001	0.00000E+000	1.56468E+003	11	...........
	795	3980	3.94820E+000	2.00039E-002	0.00000E+000	7.89793E-002	6.00386E-001	0.00000E+000	1.56468E+003	11	...........
	798	3995	3.94912E+000	2.00039E-002	0.00000E+000	7.89977E-002	6.00386E-001	0.00000E+000	1.56468E+003	11	...........
	801	4010	3.94998E+000	2.00038E-002	0.00000E+000	7.90148E-002	6.00386E-001	0.00000E+000	1.56469E+003	11	...........
	804	4025	3.95086E+000	2.00037E-002	0.00000E+000	7.90319E-002	6.00386E-001	0.00000E+000	1.56467E+003	11	...........
	807	4040	3.95180E+000	2.00038E-002	0.00000E+000	7.90512E-002	6.00386E-001	0.00000E+000	1.56468E+003	11	...........
	810	4055	3.95266E+000	2.00037E-002	0.00000E+000	7.90678E-002	6.00386E-001	0.00000E+000	1.56468E+003	11	...........
	813	4070	3.95358E+000	2.00033E-002	0.00000E+000	7.90847E-002	6.00386E-001	0.00000E+000	1.56468E+003	11	...........
	816	4085	3.95452E+000	2.00013E-002	0.00000E+000	7.90957E-002	6.00386E-001	0.00000E+000	1.56468E+003	11	...........
	819	4100	3.95549E+000	2.00013E-002	0.00000E+000	7.91149E-002	6.00386E-001	0.00000E+000	1.56468E+003	11	...........
	822	4115	3.95639E+000	2.00013E-002	0.00000E+000	7.91330E-002	6.00386E-001	0.00000E+000	1.56473E+003	11	...........
	825	4130	3.95732E+000	2.00039E-002	0.00000E+000	7.91620E-002	6.00386E-001	0.00000E+000	1.56468E+003	11	...........
	828	4145	3.95824E+000	2.00039E-002	0.00000E+000	7.91801E-002	6.00386E-001	0.00000E+000	1.56468E+003	11	...........
	831	4160	3.95920E+000	2.00038E-002	0.00000E+000	7.91991E-002	6.00386E-001	0.00000E+000	1.56468E+003	11	...........
	834	4175	3.96015E+000	2.00039E-002	0.00000E+000	7.92185E-002	6.00386E-001	0.00000E+000	1.56468E+003	11	...........
	837	4190	3.96116E+000	2.00039E-002	0.00000E+000	7.92387E-002	6.00386E-001	0.00000E+000	1.56470E+003	11	...........
	840	4205	3.96214E+000	2.00037E-002	0.00000E+000	7.92575E-002	6.00386E-001	0.00000E+000	1.56469E+003	11	...........
	843	4220	3.96311E+000	2.00038E-002	0.00000E+000	7.92772E-002	6.00386E-001	0.00000E+000	1.56468E+003	11	...........
	846	4235	3.96412E+000	2.00036E-002	0.00000E+000	7.92968E-002	6.00386E-001	0.00000E+000	1.56468E+003	11	...........
	849	4250	3.96517E+000	2.00034E-002	0.00000E+000	7.93169E-002	6.00386E-001	0.00000E+000	1.56468E+003	11	...........
	852	4265	3.96620E+000	2.00038E-002	0.00000E+000	7.93391E-002	6.00386E-001	0.00000E+000	1.56468E+003	11	...........
	855	4280	3.96747E+000	2.00036E-002	0.00000E+000	7.93637E-002	6.00386E-001	0.00000E+000	1.56473E+003	11	...........
	858	4295	3.96868E+000	2.00032E-002	0.00000E+000	7.93861E-002	6.00386E-001	0.00000E+000	1.56468E+003	11	...........
	861	4310	3.96986E+000	2.00030E-002	0.00000E+000	7.94091E-002	6.00386E-001	0.00000E+000	1.56468E+003	11	...........
	864	4325	3.97102E+000	2.00014E-002	0.00000E+000	7.94260E-002	6.00386E-001	0.00000E+000	1.56468E+003	11	...........
	867	4340	3.97208E+000	2.00023E-002	0.00000E+000	7.94507E-002	6.00386E-001	0.00000E+000	1.56468E+003	11	...........
	870	4355	3.97312E+000	2.00025E-002	0.00000E+000	7.94725E-002	6.00386E-001	0.00000E+000	1.56468E+003	11	...........
	873	4370	3.97418E+000	2.00011E-002	0.00000E+000	7.94881E-002	6.00386E-001	0.00000E+000	1.56468E+003	11	...........
	876	4385	3.97526E+000	2.00011E-002	0.00000E+000	7.95095E-002	6.00386E-001	0.00000E+000	1.56468E+003	11	...........
	879	4400	3.97629E+000	2.00007E-002	0.00000E+000	7.95287E-002	6.00386E-001	0.00000E+000	1.56470E+003	11	...........
	882	4415	3.97733E+000	2.00011E-002	0.00000E+000	7.95511E-002	6.00386E-001	0.00000E+000	1.56470E+003	11	...........
	885	4430	3.97839E+000	2.00029E-002	0.00000E+000	7.95793E-002	6.00386E-001	0.00000E+000	1.56468E+003	11	...........
	888	4445	3.97940E+000	2.00035E-002	0.00000E+000	7.96022E-002	6.00386E-001	0.00000E+000	1.56468E+003	11	...........
	891	4460	3.98045E+000	2.00037E-002	0.00000E+000	7.96236E-002	6.00386E-001	0.00000E+000	1.56468E+003	11	...........
	894	4475	3.98147E+000	2.00026E-002	0.00000E+000	7.96396E-002	6.00386E-001	0.00000E+000	1.56468E+003	11	...........
	897	4490	3.98246E+000	2.00032E-002	0.00000E+000	7.96617E-002	6.00386E-001	0.00000E+000	1.56468E+003	11	...........
	900	4505	3.98355E+000	2.00038E-002	0.00000E+000	7.96862E-002	6.00386E-001	0.00000E+000	1.56468E+003	11	...........
	903	4520	3.98459E+000	2.00037E-002	0.00000E+000	7.97067E-002	6.00386E-001	0.00000E+000	1.56468E+003	11	...........
	906	4535	3.98560E+000	2.00038E-002	0.00000E+000	7.97270E-002	6.00386E-001	0.00000E+000	1.56468E+003	11	...........
	909	4550	3.98665E+000	2.00039E-002	0.00000E+000	7.97485E-002	6.00386E-001	0.00000E+000	1.56469E+003	11	...........
	912	4565	3.98768E+000	2.00039E-002	0.00000E+000	7.97691E-002	6.00386E-001	0.00000E+000	1.56468E+003	11	...........
	915	4580	3.98868E+000	2.00040E-002	0.00000E+000	7.97896E-002	6.00386E-001	0.00000E+000	1.56473E+003	11	...........
	918	4595	3.98973E+000	2.00039E-002	0.00000E+000	7.98102E-002	6.00386E-001	0.00000E+000	1.56468E+003	11	...........
	921	4610	3.99079E+000	2.00040E-002	0.00000E+000	7.98315E-002	6.00386E-001	0.00000E+000	1.56468E+003	11	...........
	924	4625	3.99185E+000	2.00040E-002	0.00000E+000	7.98530E-002	6.00386E-001	0.00000E+000	1.56473E+003	11	...........
	927	4640	3.99297E+000	2.00039E-002	0.00000E+000	7.98750E-002	6.00386E-001	0.00000E+000	1.56468E+003	11	...........
	930	4655	3.99410E+000	2.00009E-002	0.00000E+000	7.98857E-002	6.00386E-001	0.00000E+000	1.56469E+003	11	...........
	933	4670	3.99527E+000	2.00006E-002	0.00000E+000	7.99079E-002	6.00386E-001	0.00000E+000	1.56468E+003	11	...........
	936	4685	3.99648E+000	2.00007E-002	0.00000E+000	7.99326E-002	6.00386E-001	0.00000E+000	1.56468E+003	11	...........
	939	4700	3.99763E+000	2.00007E-002	0.00000E+000	7.99553E-002	6.00386E-001	0.00000E+000	1.56468E+003	11	...........
	942	4715	3.99875E+000	2.00013E-002	0.00000E+000	7.99803E-002	6.00386E-001	0.00000E+000	1.56468E+003	11	...........
	945	4725.42	3.99976E+000	2.00006E-002	0.00000E+000	7.99978E-002	6.00386E-001	0.00000E+000	1.56469E+003	11	...........
STARTTIMEOFFSET	QUANT	170.7717	Start Time Offset (s)