File: Battery Data/Lydia_data/Salt water CSV/1M salt water.CSV
Wavenumber,Absorbance (I),Background (I0),T,A
4.00E+02,5.18E-02,2.55E-01,2.04E-01,0.691409
4.04E+02,6.20E-02,3.11E-01,1.99E-01,0.700101
4.07E+02,7.67E-02,3.52E-01,2.18E-01,0.661411
4.10E+02,9.03E-02,3.96E-01,2.28E-01,0.641847
4.14E+02,1.04E-01,4.41E-01,2.35E-01,0.629501
4.17E+02,1.07E-01,4.59E-01,2.32E-01,0.633733
4.20E+02,1.17E-01,5.05E-01,2.32E-01,0.634618
4.24E+02,1.30E-01,5.73E-01,2.26E-01,0.646035
4.27E+02,1.47E-01,6.34E-01,2.31E-01,0.635586
4.31E+02,1.61E-01,6.86E-01,2.34E-01,0.630592
4.34E+02,1.77E-01,7.31E-01,2.42E-01,0.6162655
4.37E+02,1.81E-01,7.61E-01,2.38E-01,0.622763
4.41E+02,1.94E-01,8.09E-01,2.40E-01,0.619319
4.44E+02,1.92E-01,8.46E-01,2.27E-01,0.643724
4.47E+02,2.13E-01,8.93E-01,2.39E-01,0.622325
4.51E+02,2.31E-01,9.21E-01,2.50E-01,0.6012944
4.54E+02,2.37E-01,9.43E-01,2.51E-01,0.599782
4.58E+02,2.21E-01,9.46E-01,2.34E-01,0.630657
4.61E+02,2.40E-01,1.00E+00,2.40E-01,0.620476
4.64E+02,2.75E-01,1.04E+00,2.65E-01,0.576894
4.68E+02,2.91E-01,1.07E+00,2.73E-01,0.564297
4.71E+02,2.73E-01,1.10E+00,2.48E-01,0.604755
4.74E+02,2.84E-01,1.14E+00,2.49E-01,0.604625
4.78E+02,3.20E-01,1.21E+00,2.65E-01,0.577293
4.81E+02,3.27E-01,1.26E+00,2.59E-01,0.586513
4.85E+02,3.31E-01,1.29E+00,2.56E-01,0.591982
4.88E+02,3.51E-01,1.36E+00,2.58E-01,0.587824
4.91E+02,3.76E-01,1.41E+00,2.65E-01,0.575974
4.95E+02,3.86E-01,1.47E+00,2.62E-01,0.58143
4.98E+02,4.04E-01,1.54E+00,2.63E-01,0.580562
5.01E+02,4.28E-01,1.59E+00,2.69E-01,0.570262
5.05E+02,4.60E-01,1.66E+00,2.77E-01,0.558285
5.08E+02,4.77E-01,1.73E+00,2.75E-01,0.560524
5.12E+02,4.95E-01,1.81E+00,2.73E-01,0.563193
5.15E+02,5.20E-01,1.88E+00,2.77E-01,0.557399
5.18E+02,5.40E-01,1.94E+00,2.79E-01,0.55507
5.22E+02,5.71E-01,2.04E+00,2.80E-01,0.552623
5.25E+02,5.95E-01,2.10E+00,2.84E-01,0.547295
5.28E+02,6.23E-01,2.18E+00,2.86E-01,0.543678
5.32E+02,6.44E-01,2.25E+00,2.87E-01,0.542561
5.35E+02,6.64E-01,2.29E+00,2.90E-01,0.537795
5.39E+02,6.76E-01,2.33E+00,2.90E-01,0.537202
5.42E+02,6.92E-01,2.35E+00,2.94E-01,0.531273
5.45E+02,7.07E-01,2.39E+00,2.96E-01,0.528507
5.49E+02,7.13E-01,2.41E+00,2.96E-01,0.529081
5.52E+02,7.35E-01,2.45E+00,3.00E-01,0.522733
5.55E+02,7.49E-01,2.48E+00,3.02E-01,0.520017
5.59E+02,7.70E-01,2.52E+00,3.06E-01,0.514629
5.62E+02,7.90E-01,2.56E+00,3.08E-01,0.510945
5.66E+02,8.07E-01,2.60E+00,3.11E-01,0.507703
5.69E+02,8.19E-01,2.63E+00,3.11E-01,0.50702
5.72E+02,8.49E-01,2.68E+00,3.16E-01,0.500038
5.76E+02,8.65E-01,2.71E+00,3.19E-01,0.496188
5.79E+02,8.84E-01,2.75E+00,3.22E-01,0.492699
5.82E+02,9.11E-01,2.78E+00,3.27E-01,0.485331
5.86E+02,9.30E-01,2.81E+00,3.30E-01,0.480872
5.89E+02,9.44E-01,2.84E+00,3.32E-01,0.478752
5.93E+02,9.69E-01,2.89E+00,3.35E-01,0.475159
5.96E+02,9.93E-01,2.94E+00,3.37E-01,0.471962
5.99E+02,1.01E+00,2.98E+00,3.40E-01,0.468577
6.03E+02,1.04E+00,3.03E+00,3.44E-01,0.463289
6.06E+02,1.07E+00,3.07E+00,3.48E-01,0.45812
6.09E+02,1.10E+00,3.10E+00,3.53E-01,0.451805
6.13E+02,1.12E+00,3.15E+00,3.55E-01,0.450183
6.16E+02,1.14E+00,3.18E+00,3.59E-01,0.444929
6.20E+02,1.17E+00,3.23E+00,3.62E-01,0.441257
6.23E+02,1.20E+00,3.28E+00,3.65E-01,0.437226
6.26E+02,1.23E+00,3.32E+00,3.69E-01,0.432531
6.30E+02,1.25E+00,3.36E+00,3.73E-01,0.428849
6.33E+02,1.28E+00,3.39E+00,3.76E-01,0.424757
6.36E+02,1.30E+00,3.41E+00,3.80E-01,0.419695
6.40E+02,1.32E+00,3.44E+00,3.84E-01,0.41542
6.43E+02,1.35E+00,3.47E+00,3.90E-01,0.409407
6.47E+02,1.37E+00,3.47E+00,3.95E-01,0.403858
6.50E+02,1.38E+00,3.48E+00,3.97E-01,0.400953
6.53E+02,1.41E+00,3.51E+00,4.01E-01,0.396321
6.57E+02,1.43E+00,3.53E+00,4.05E-01,0.392166
6.60E+02,1.46E+00,3.57E+00,4.09E-01,0.388634
6.63E+02,1.50E+00,3.62E+00,4.15E-01,0.382161
6.67E+02,1.30E+00,3.10E+00,4.20E-01,0.376528
6.70E+02,1.43E+00,3.38E+00,4.25E-01,0.3721
6.74E+02,1.58E+00,3.69E+00,4.28E-01,0.368392
6.77E+02,1.60E+00,3.71E+00,4.32E-01,0.364238
6.80E+02,1.63E+00,3.74E+00,4.36E-01,0.360949
6.84E+02,1.67E+00,3.79E+00,4.40E-01,0.356075
6.87E+02,1.71E+00,3.84E+00,4.46E-01,0.350708
6.90E+02,1.76E+00,3.89E+00,4.52E-01,0.345104
6.94E+02,1.80E+00,3.95E+00,4.56E-01,0.341014
6.97E+02,1.84E+00,3.99E+00,4.61E-01,0.33619
7.01E+02,1.88E+00,4.03E+00,4.67E-01,0.330414
7.04E+02,1.91E+00,4.06E+00,4.70E-01,0.327568
7.07E+02,1.95E+00,4.09E+00,4.76E-01,0.322052
7.11E+02,1.98E+00,4.11E+00,4.82E-01,0.31698
7.14E+02,2.01E+00,4.12E+00,4.87E-01,0.312377
7.17E+02,2.04E+00,4.13E+00,4.93E-01,0.307571
7.21E+02,2.06E+00,4.13E+00,4.98E-01,0.302824
7.24E+02,2.09E+00,4.16E+00,5.02E-01,0.299663
7.28E+02,2.12E+00,4.18E+00,5.07E-01,0.295359
7.31E+02,2.15E+00,4.19E+00,5.13E-01,0.290052
7.34E+02,2.18E+00,4.20E+00,5.19E-01,0.285229
7.38E+02,2.21E+00,4.21E+00,5.24E-01,0.280886
7.41E+02,2.24E+00,4.23E+00,5.30E-01,0.275886
7.44E+02,2.28E+00,4.26E+00,5.35E-01,0.27157
7.48E+02,2.31E+00,4.28E+00,5.41E-01,0.266971
7.51E+02,2.36E+00,4.31E+00,5.47E-01,0.262041
7.55E+02,2.39E+00,4.33E+00,5.53E-01,0.257231
7.58E+02,2.43E+00,4.35E+00,5.58E-01,0.253017
7.61E+02,2.47E+00,4.37E+00,5.64E-01,0.248469
7.65E+02,2.49E+00,4.38E+00,5.69E-01,0.244633
7.68E+02,2.53E+00,4.40E+00,5.76E-01,0.239789
7.71E+02,2.57E+00,4.42E+00,5.81E-01,0.23562
7.75E+02,2.60E+00,4.43E+00,5.87E-01,0.231511
7.78E+02,2.63E+00,4.43E+00,5.94E-01,0.226548
7.82E+02,2.66E+00,4.44E+00,5.99E-01,0.222478
7.85E+02,2.68E+00,4.44E+00,6.05E-01,0.218509
7.88E+02,2.71E+00,4.43E+00,6.12E-01,0.213476
7.92E+02,2.73E+00,4.42E+00,6.16E-01,0.210351
7.95E+02,2.75E+00,4.41E+00,6.22E-01,0.206071
7.98E+02,2.77E+00,4.41E+00,6.28E-01,0.202025
8.02E+02,2.80E+00,4.41E+00,6.35E-01,0.197546
8.05E+02,2.83E+00,4.42E+00,6.40E-01,0.193719
8.09E+02,2.88E+00,4.44E+00,6.48E-01,0.188388
8.12E+02,2.92E+00,4.47E+00,6.55E-01,0.183971
8.15E+02,2.97E+00,4.48E+00,6.62E-01,0.179346
8.19E+02,3.00E+00,4.50E+00,6.67E-01,0.175882
8.22E+02,3.04E+00,4.51E+00,6.74E-01,0.171449
8.25E+02,3.08E+00,4.52E+00,6.81E-01,0.167085
8.29E+02,3.12E+00,4.53E+00,6.87E-01,0.1628
8.32E+02,3.15E+00,4.54E+00,6.94E-01,0.158899
8.36E+02,3.18E+00,4.54E+00,7.00E-01,0.154596
8.39E+02,3.20E+00,4.54E+00,7.06E-01,0.151109
8.42E+02,3.24E+00,4.54E+00,7.13E-01,0.147011
8.46E+02,3.27E+00,4.56E+00,7.18E-01,0.143814
8.49E+02,3.32E+00,4.58E+00,7.24E-01,0.140204
8.52E+02,3.36E+00,4.60E+00,7.31E-01,0.13619
8.56E+02,3.41E+00,4.62E+00,7.38E-01,0.132053
8.59E+02,3.46E+00,4.65E+00,7.44E-01,0.128541
8.63E+02,3.50E+00,4.67E+00,7.50E-01,0.125218
8.66E+02,3.55E+00,4.70E+00,7.54E-01,0.122404
8.69E+02,3.59E+00,4.73E+00,7.59E-01,0.119601
8.73E+02,3.64E+00,4.76E+00,7.66E-01,0.115829
8.76E+02,3.70E+00,4.79E+00,7.72E-01,0.11226
8.79E+02,3.76E+00,4.83E+00,7.78E-01,0.10917
8.83E+02,3.81E+00,4.86E+00,7.83E-01,0.10631
8.86E+02,3.86E+00,4.89E+00,7.88E-01,0.103204
8.90E+02,3.91E+00,4.92E+00,7.93E-01,0.100463
8.93E+02,3.96E+00,4.95E+00,7.99E-01,0.0976568
8.96E+02,4.01E+00,4.99E+00,8.03E-01,0.09522516
9.00E+02,4.06E+00,5.02E+00,8.08E-01,0.0926776
9.03E+02,4.11E+00,5.06E+00,8.12E-01,0.0902498
9.06E+02,4.16E+00,5.10E+00,8.17E-01,0.0877154
9.10E+02,4.22E+00,5.14E+00,8.21E-01,0.0855307
9.13E+02,4.27E+00,5.18E+00,8.25E-01,0.0834027
9.17E+02,4.33E+00,5.22E+00,8.29E-01,0.0811888
9.20E+02,4.39E+00,5.26E+00,8.34E-01,0.0789525
9.23E+02,4.45E+00,5.31E+00,8.38E-01,0.0766351
9.27E+02,4.51E+00,5.37E+00,8.41E-01,0.075159
9.30E+02,4.57E+00,5.42E+00,8.44E-01,0.07362186
9.33E+02,4.64E+00,5.47E+00,8.48E-01,0.0717161
9.37E+02,4.70E+00,5.52E+00,8.52E-01,0.0697947
9.40E+02,4.75E+00,5.57E+00,8.54E-01,0.0687704
9.44E+02,4.81E+00,5.62E+00,8.56E-01,0.0677096
9.47E+02,4.86E+00,5.67E+00,8.58E-01,0.0664731
9.50E+02,4.91E+00,5.71E+00,8.61E-01,0.0650298
9.54E+02,4.97E+00,5.75E+00,8.64E-01,0.0633369
9.57E+02,5.01E+00,5.79E+00,8.67E-01,0.06223
9.60E+02,5.06E+00,5.82E+00,8.68E-01,0.0612305
9.64E+02,5.10E+00,5.85E+00,8.70E-01,0.0602549
9.67E+02,5.13E+00,5.88E+00,8.72E-01,0.0594191
9.71E+02,5.16E+00,5.90E+00,8.74E-01,0.0583538
9.74E+02,5.18E+00,5.92E+00,8.76E-01,0.05772295
9.77E+02,5.21E+00,5.94E+00,8.77E-01,0.0569968
9.81E+02,5.23E+00,5.96E+00,8.78E-01,0.05661845
9.84E+02,5.25E+00,5.97E+00,8.80E-01,0.0557264
9.87E+02,5.27E+00,5.97E+00,8.82E-01,0.0547652
9.91E+02,5.28E+00,5.99E+00,8.82E-01,0.0544816
9.94E+02,5.30E+00,6.00E+00,8.83E-01,0.0539371
9.98E+02,5.31E+00,6.01E+00,8.84E-01,0.05346612
1.00E+03,5.32E+00,6.01E+00,8.85E-01,0.0529982
1.00E+03,5.31E+00,6.00E+00,8.86E-01,0.0527853
1.01E+03,5.30E+00,5.98E+00,8.86E-01,0.0525816
1.01E+03,5.27E+00,5.95E+00,8.86E-01,0.0526185
1.01E+03,5.24E+00,5.91E+00,8.86E-01,0.0526757
1.02E+03,5.21E+00,5.88E+00,8.86E-01,0.0524001
1.02E+03,5.18E+00,5.84E+00,8.87E-01,0.0519603
1.02E+03,5.16E+00,5.81E+00,8.88E-01,0.0516863
1.03E+03,5.13E+00,5.78E+00,8.89E-01,0.05125281
1.03E+03,5.11E+00,5.74E+00,8.90E-01,0.0505954
1.03E+03,5.08E+00,5.71E+00,8.91E-01,0.0502291
1.04E+03,5.05E+00,5.68E+00,8.90E-01,0.0504616
1.04E+03,5.02E+00,5.63E+00,8.91E-01,0.050126
1.04E+03,4.98E+00,5.59E+00,8.92E-01,0.0498637
1.05E+03,4.95E+00,5.54E+00,8.93E-01,0.0491824
1.05E+03,4.92E+00,5.51E+00,8.93E-01,0.0490562
1.05E+03,4.90E+00,5.48E+00,8.94E-01,0.0486064
1.06E+03,4.88E+00,5.45E+00,8.95E-01,0.04822
1.06E+03,4.87E+00,5.44E+00,8.95E-01,0.0482189
1.07E+03,4.87E+00,5.43E+00,8.95E-01,0.0480214
1.07E+03,4.86E+00,5.43E+00,8.96E-01,0.0478317
1.07E+03,4.85E+00,5.42E+00,8.96E-01,0.0477357
1.08E+03,4.85E+00,5.42E+00,8.96E-01,0.047831
1.08E+03,4.88E+00,5.46E+00,8.95E-01,0.0483511
1.08E+03,4.92E+00,5.49E+00,8.96E-01,0.0477406
1.09E+03,4.95E+00,5.53E+00,8.96E-01,0.047728
1.09E+03,4.99E+00,5.57E+00,8.96E-01,0.0478478
1.09E+03,5.03E+00,5.61E+00,8.96E-01,0.0478278
1.10E+03,5.07E+00,5.66E+00,8.95E-01,0.0481293
1.10E+03,5.12E+00,5.72E+00,8.95E-01,0.04796856
1.10E+03,5.19E+00,5.79E+00,8.97E-01,0.0473048
1.11E+03,5.26E+00,5.86E+00,8.97E-01,0.0471514
1.11E+03,5.33E+00,5.94E+00,8.98E-01,0.0469615
1.11E+03,5.41E+00,6.02E+00,8.99E-01,0.0462526
1.12E+03,5.50E+00,6.12E+00,8.99E-01,0.0463183
1.12E+03,5.59E+00,6.22E+00,9.00E-01,0.04594
1.12E+03,5.69E+00,6.31E+00,9.01E-01,0.04523423
1.13E+03,5.78E+00,6.42E+00,9.01E-01,0.045288
1.13E+03,5.86E+00,6.51E+00,9.01E-01,0.0450406
1.13E+03,5.95E+00,6.59E+00,9.02E-01,0.0447781
1.14E+03,6.02E+00,6.68E+00,9.02E-01,0.0448688
1.14E+03,6.07E+00,6.73E+00,9.02E-01,0.0446789
1.14E+03,6.12E+00,6.79E+00,9.02E-01,0.0446629
1.15E+03,6.21E+00,6.89E+00,9.02E-01,0.0447573
1.15E+03,6.29E+00,6.97E+00,9.03E-01,0.044385
1.15E+03,6.36E+00,7.04E+00,9.03E-01,0.0443716
1.16E+03,6.42E+00,7.10E+00,9.03E-01,0.0442853
1.16E+03,6.48E+00,7.17E+00,9.03E-01,0.0444264
1.16E+03,6.54E+00,7.24E+00,9.03E-01,0.0441413
1.17E+03,6.61E+00,7.31E+00,9.03E-01,0.0442524
1.17E+03,6.67E+00,7.39E+00,9.03E-01,0.0443246
1.17E+03,6.73E+00,7.46E+00,9.03E-01,0.0443406
1.18E+03,6.78E+00,7.51E+00,9.03E-01,0.0444568
1.18E+03,6.80E+00,7.53E+00,9.03E-01,0.0440957
1.18E+03,6.89E+00,7.62E+00,9.04E-01,0.0438713
1.19E+03,6.96E+00,7.70E+00,9.04E-01,0.0438287
1.19E+03,7.01E+00,7.76E+00,9.04E-01,0.043978
1.19E+03,7.06E+00,7.81E+00,9.04E-01,0.0440452
1.20E+03,7.10E+00,7.86E+00,9.04E-01,0.0440131
1.20E+03,7.15E+00,7.92E+00,9.03E-01,0.0441591
1.20E+03,7.20E+00,7.97E+00,9.03E-01,0.04411141
1.21E+03,7.25E+00,8.02E+00,9.04E-01,0.0440559
1.21E+03,7.29E+00,8.07E+00,9.03E-01,0.0440904
1.21E+03,7.33E+00,8.11E+00,9.04E-01,0.0440685
1.22E+03,7.37E+00,8.16E+00,9.03E-01,0.0444746
1.22E+03,7.41E+00,8.20E+00,9.03E-01,0.0441786
1.22E+03,7.45E+00,8.25E+00,9.04E-01,0.0440172
1.23E+03,7.49E+00,8.29E+00,9.03E-01,0.0442043
1.23E+03,7.53E+00,8.34E+00,9.03E-01,0.0443359
1.23E+03,7.57E+00,8.39E+00,9.03E-01,0.0444386
1.24E+03,7.61E+00,8.44E+00,9.03E-01,0.0444392
1.24E+03,7.65E+00,8.48E+00,9.03E-01,0.044483
1.24E+03,7.68E+00,8.51E+00,9.03E-01,0.0444726
1.25E+03,7.70E+00,8.53E+00,9.02E-01,0.044681
1.25E+03,7.71E+00,8.55E+00,9.02E-01,0.0449359
1.25E+03,7.70E+00,8.54E+00,9.01E-01,0.0454369
1.26E+03,7.65E+00,8.50E+00,8.99E-01,0.0461294
1.26E+03,7.60E+00,8.46E+00,8.98E-01,0.0467447
1.26E+03,7.64E+00,8.50E+00,8.99E-01,0.0464792
1.27E+03,7.72E+00,8.57E+00,9.01E-01,0.04541683
1.27E+03,7.79E+00,8.63E+00,9.03E-01,0.0444485
1.27E+03,7.85E+00,8.70E+00,9.03E-01,0.0443757
1.28E+03,7.89E+00,8.74E+00,9.03E-01,0.044348
1.28E+03,7.92E+00,8.77E+00,9.03E-01,0.0441791
1.28E+03,7.94E+00,8.79E+00,9.03E-01,0.0441376
1.29E+03,7.95E+00,8.80E+00,9.04E-01,0.0440109
1.29E+03,7.97E+00,8.83E+00,9.03E-01,0.04410624
1.29E+03,7.99E+00,8.84E+00,9.03E-01,0.0441762
1.30E+03,7.99E+00,8.84E+00,9.04E-01,0.0439179
1.30E+03,8.00E+00,8.86E+00,9.03E-01,0.0442044
1.30E+03,8.01E+00,8.87E+00,9.03E-01,0.0442143
1.31E+03,8.03E+00,8.88E+00,9.04E-01,0.0439577
1.31E+03,8.03E+00,8.88E+00,9.04E-01,0.0437869
1.31E+03,8.03E+00,8.89E+00,9.04E-01,0.0439106
1.32E+03,8.03E+00,8.88E+00,9.04E-01,0.04395214
1.32E+03,8.07E+00,8.93E+00,9.04E-01,0.0437833
1.32E+03,8.10E+00,8.96E+00,9.04E-01,0.0438631
1.33E+03,8.09E+00,8.95E+00,9.04E-01,0.0439189
1.33E+03,8.08E+00,8.94E+00,9.04E-01,0.0438288
1.34E+03,8.05E+00,8.91E+00,9.04E-01,0.043849
1.34E+03,7.92E+00,8.76E+00,9.04E-01,0.0439898
1.34E+03,7.98E+00,8.83E+00,9.04E-01,0.0438867
1.35E+03,8.03E+00,8.88E+00,9.04E-01,0.0437347
1.35E+03,8.00E+00,8.85E+00,9.04E-01,0.0438198
1.35E+03,7.97E+00,8.81E+00,9.04E-01,0.043704
1.36E+03,7.92E+00,8.76E+00,9.04E-01,0.043746
1.36E+03,7.85E+00,8.68E+00,9.04E-01,0.0440143
1.36E+03,7.60E+00,8.41E+00,9.04E-01,0.0440506
1.37E+03,7.74E+00,8.57E+00,9.04E-01,0.0439884
1.37E+03,7.77E+00,8.59E+00,9.04E-01,0.0438528
1.37E+03,7.72E+00,8.55E+00,9.04E-01,0.0440232
1.38E+03,7.67E+00,8.49E+00,9.04E-01,0.0438921
1.38E+03,7.78E+00,8.61E+00,9.04E-01,0.0437625
1.38E+03,7.72E+00,8.54E+00,9.04E-01,0.04369204
1.39E+03,7.55E+00,8.35E+00,9.04E-01,0.0437977
1.39E+03,7.65E+00,8.47E+00,9.04E-01,0.04394477
1.39E+03,7.71E+00,8.53E+00,9.04E-01,0.0439607
1.40E+03,7.50E+00,8.29E+00,9.04E-01,0.043755
1.40E+03,7.56E+00,8.36E+00,9.04E-01,0.0438554
1.40E+03,7.77E+00,8.60E+00,9.04E-01,0.0438271
1.41E+03,7.71E+00,8.53E+00,9.04E-01,0.0439626
1.41E+03,7.81E+00,8.64E+00,9.04E-01,0.0439368
1.41E+03,7.80E+00,8.63E+00,9.04E-01,0.0439249
1.42E+03,7.63E+00,8.45E+00,9.03E-01,0.0440722
1.42E+03,7.09E+00,7.85E+00,9.03E-01,0.044222
1.42E+03,7.65E+00,8.46E+00,9.03E-01,0.0440934
1.43E+03,7.76E+00,8.58E+00,9.04E-01,0.0440161
1.43E+03,7.64E+00,8.46E+00,9.03E-01,0.0442017
1.43E+03,7.74E+00,8.57E+00,9.03E-01,0.0442636
1.44E+03,7.14E+00,7.91E+00,9.02E-01,0.0445995
1.44E+03,7.75E+00,8.58E+00,9.03E-01,0.04445
1.44E+03,7.88E+00,8.73E+00,9.03E-01,0.0443848
1.45E+03,7.76E+00,8.60E+00,9.02E-01,0.0446345
1.45E+03,7.81E+00,8.65E+00,9.02E-01,0.0446375
1.45E+03,7.79E+00,8.63E+00,9.02E-01,0.0445905
1.46E+03,6.69E+00,7.42E+00,9.01E-01,0.0450629
1.46E+03,7.57E+00,8.40E+00,9.01E-01,0.0452679
1.46E+03,7.75E+00,8.59E+00,9.01E-01,0.0451504
1.47E+03,7.80E+00,8.65E+00,9.01E-01,0.0452365
1.47E+03,7.77E+00,8.62E+00,9.00E-01,0.0455349
1.47E+03,7.23E+00,8.03E+00,9.00E-01,0.04564254
1.48E+03,7.82E+00,8.68E+00,9.00E-01,0.0455379
1.48E+03,8.12E+00,9.03E+00,9.00E-01,0.0457685
1.48E+03,8.16E+00,9.07E+00,8.99E-01,0.0460402
1.49E+03,7.83E+00,8.71E+00,8.98E-01,0.0465361
1.49E+03,7.60E+00,8.46E+00,8.98E-01,0.0465853
1.49E+03,7.96E+00,8.87E+00,8.98E-01,0.0466464
1.50E+03,7.43E+00,8.28E+00,8.97E-01,0.0472005
1.50E+03,7.89E+00,8.80E+00,8.97E-01,0.0473738
1.50E+03,7.58E+00,8.46E+00,8.96E-01,0.0477518
1.51E+03,6.48E+00,7.24E+00,8.95E-01,0.0483686
1.51E+03,7.58E+00,8.48E+00,8.94E-01,0.048707
1.51E+03,7.69E+00,8.61E+00,8.93E-01,0.0491295
1.52E+03,7.32E+00,8.20E+00,8.92E-01,0.0497394
1.52E+03,6.80E+00,7.63E+00,8.91E-01,0.0502207
1.52E+03,7.19E+00,8.07E+00,8.90E-01,0.0506355
1.53E+03,7.41E+00,8.33E+00,8.89E-01,0.0512441
1.53E+03,7.53E+00,8.49E+00,8.87E-01,0.0519725
1.53E+03,7.10E+00,8.02E+00,8.86E-01,0.0526907
1.54E+03,6.75E+00,7.64E+00,8.84E-01,0.0535538
1.54E+03,5.82E+00,6.61E+00,8.81E-01,0.0549741
1.54E+03,6.56E+00,7.46E+00,8.79E-01,0.0558318
1.55E+03,7.07E+00,8.05E+00,8.78E-01,0.0564611
1.55E+03,7.04E+00,8.04E+00,8.76E-01,0.0573673
1.55E+03,6.69E+00,7.67E+00,8.73E-01,0.0589756
1.56E+03,5.68E+00,6.53E+00,8.70E-01,0.060535
1.56E+03,6.25E+00,7.22E+00,8.66E-01,0.0622677
1.56E+03,7.05E+00,8.17E+00,8.63E-01,0.063741
1.57E+03,6.84E+00,7.96E+00,8.59E-01,0.0658742
1.57E+03,6.82E+00,7.99E+00,8.54E-01,0.0685308
1.57E+03,6.52E+00,7.67E+00,8.50E-01,0.070792
1.58E+03,6.57E+00,7.80E+00,8.43E-01,0.0739972
1.58E+03,6.93E+00,8.28E+00,8.38E-01,0.076954
1.58E+03,6.86E+00,8.27E+00,8.30E-01,0.08087838
1.59E+03,6.79E+00,8.26E+00,8.22E-01,0.085091
1.59E+03,6.71E+00,8.25E+00,8.13E-01,0.0899051
1.59E+03,6.59E+00,8.21E+00,8.03E-01,0.0952583
1.60E+03,6.53E+00,8.24E+00,7.92E-01,0.101292
1.60E+03,6.40E+00,8.21E+00,7.80E-01,0.108077
1.60E+03,6.28E+00,8.19E+00,7.67E-01,0.115137
1.61E+03,6.11E+00,8.12E+00,7.53E-01,0.123136
1.61E+03,6.02E+00,8.15E+00,7.39E-01,0.131314
1.62E+03,5.48E+00,7.55E+00,7.25E-01,0.139539
1.62E+03,5.42E+00,7.63E+00,7.11E-01,0.148282
1.62E+03,5.42E+00,7.75E+00,7.00E-01,0.155153
1.63E+03,5.32E+00,7.72E+00,6.89E-01,0.161523
1.63E+03,5.32E+00,7.80E+00,6.82E-01,0.16609
1.63E+03,5.32E+00,7.85E+00,6.78E-01,0.16884
1.64E+03,4.61E+00,6.82E+00,6.76E-01,0.169843
1.64E+03,5.14E+00,7.59E+00,6.78E-01,0.16893
1.64E+03,5.31E+00,7.78E+00,6.82E-01,0.165931
1.65E+03,4.83E+00,7.01E+00,6.88E-01,0.162232
1.65E+03,5.05E+00,7.25E+00,6.96E-01,0.157116
1.65E+03,4.23E+00,5.99E+00,7.06E-01,0.151365
1.66E+03,5.04E+00,7.02E+00,7.17E-01,0.144183
1.66E+03,5.59E+00,7.67E+00,7.29E-01,0.137409
1.66E+03,5.39E+00,7.28E+00,7.41E-01,0.13024
1.67E+03,5.67E+00,7.52E+00,7.53E-01,0.123001
1.67E+03,5.30E+00,6.92E+00,7.66E-01,0.116033
1.67E+03,5.57E+00,7.16E+00,7.79E-01,0.108677
1.68E+03,5.46E+00,6.91E+00,7.91E-01,0.101739
1.68E+03,5.87E+00,7.30E+00,8.04E-01,0.0949664
1.68E+03,5.32E+00,6.52E+00,8.15E-01,0.0887339
1.69E+03,5.39E+00,6.51E+00,8.28E-01,0.0820778
1.69E+03,6.00E+00,7.15E+00,8.39E-01,0.076211
1.69E+03,6.02E+00,7.09E+00,8.50E-01,0.0707614
1.70E+03,5.32E+00,6.19E+00,8.60E-01,0.0654869
1.70E+03,5.10E+00,5.87E+00,8.69E-01,0.060759
1.70E+03,5.77E+00,6.56E+00,8.80E-01,0.0556392
1.71E+03,5.92E+00,6.66E+00,8.88E-01,0.05156524
1.71E+03,6.18E+00,6.90E+00,8.95E-01,0.0480008
1.71E+03,6.03E+00,6.68E+00,9.02E-01,0.04470812
1.72E+03,5.42E+00,5.96E+00,9.09E-01,0.0416645
1.72E+03,5.81E+00,6.36E+00,9.15E-01,0.0387228
1.72E+03,6.16E+00,6.69E+00,9.20E-01,0.0363247
1.73E+03,6.17E+00,6.68E+00,9.24E-01,0.0341118
1.73E+03,5.99E+00,6.45E+00,9.29E-01,0.0321459
1.73E+03,5.27E+00,5.66E+00,9.32E-01,0.0306068
1.74E+03,5.78E+00,6.17E+00,9.36E-01,0.0285853
1.74E+03,5.74E+00,6.11E+00,9.39E-01,0.0272915
1.74E+03,5.89E+00,6.26E+00,9.42E-01,0.0261139
1.75E+03,5.81E+00,6.16E+00,9.44E-01,0.0248809
1.75E+03,5.54E+00,5.85E+00,9.47E-01,0.0238247
1.75E+03,5.81E+00,6.12E+00,9.49E-01,0.02286171
1.76E+03,5.75E+00,6.04E+00,9.51E-01,0.0218129
1.76E+03,5.69E+00,5.97E+00,9.53E-01,0.0208664
1.76E+03,5.69E+00,5.96E+00,9.55E-01,0.0200403
1.77E+03,5.59E+00,5.84E+00,9.56E-01,0.019406
1.77E+03,5.30E+00,5.54E+00,9.58E-01,0.01873644
1.77E+03,5.20E+00,5.42E+00,9.59E-01,0.0183851
1.78E+03,5.46E+00,5.68E+00,9.60E-01,0.017669
1.78E+03,5.33E+00,5.55E+00,9.61E-01,0.0172418
1.78E+03,5.28E+00,5.49E+00,9.62E-01,0.01678744
1.79E+03,5.28E+00,5.48E+00,9.63E-01,0.0163689
1.79E+03,5.00E+00,5.18E+00,9.64E-01,0.0158702
1.79E+03,4.93E+00,5.11E+00,9.65E-01,0.0155976
1.80E+03,5.02E+00,5.20E+00,9.65E-01,0.0152601
1.80E+03,4.85E+00,5.02E+00,9.66E-01,0.015046
1.80E+03,4.87E+00,5.03E+00,9.67E-01,0.0146311
1.81E+03,4.77E+00,4.93E+00,9.67E-01,0.0143521
1.81E+03,4.57E+00,4.72E+00,9.68E-01,0.0140757
1.81E+03,4.44E+00,4.59E+00,9.69E-01,0.0138175
1.82E+03,4.14E+00,4.27E+00,9.69E-01,0.0136606
1.82E+03,3.99E+00,4.11E+00,9.69E-01,0.0135618
1.82E+03,3.80E+00,3.92E+00,9.69E-01,0.0136081
1.83E+03,3.71E+00,3.83E+00,9.70E-01,0.0133937
1.83E+03,3.60E+00,3.71E+00,9.70E-01,0.0130567
1.83E+03,3.61E+00,3.72E+00,9.71E-01,0.0129199
1.84E+03,3.50E+00,3.61E+00,9.71E-01,0.012786
1.84E+03,3.37E+00,3.48E+00,9.70E-01,0.013024
1.84E+03,3.11E+00,3.20E+00,9.71E-01,0.0126946
1.85E+03,3.20E+00,3.29E+00,9.72E-01,0.0122827
1.85E+03,3.14E+00,3.23E+00,9.71E-01,0.0125759
1.85E+03,3.06E+00,3.15E+00,9.71E-01,0.0126644
1.86E+03,2.98E+00,3.06E+00,9.72E-01,0.0123567
1.86E+03,2.90E+00,2.98E+00,9.73E-01,0.0120177
1.86E+03,2.82E+00,2.90E+00,9.72E-01,0.0122164
1.87E+03,2.65E+00,2.72E+00,9.72E-01,0.0122811
1.87E+03,2.65E+00,2.73E+00,9.72E-01,0.0122424
1.87E+03,2.61E+00,2.69E+00,9.72E-01,0.0121472
1.88E+03,2.54E+00,2.61E+00,9.72E-01,0.0124529
1.88E+03,2.46E+00,2.53E+00,9.73E-01,0.0117901
1.89E+03,2.39E+00,2.45E+00,9.73E-01,0.0116945
1.89E+03,2.29E+00,2.35E+00,9.73E-01,0.0118156
1.89E+03,2.23E+00,2.30E+00,9.74E-01,0.0116589
1.90E+03,2.17E+00,2.22E+00,9.74E-01,0.011635
1.90E+03,2.11E+00,2.17E+00,9.72E-01,0.0122384
1.90E+03,2.04E+00,2.09E+00,9.72E-01,0.0121688
1.91E+03,1.96E+00,2.02E+00,9.73E-01,0.0120031
1.91E+03,1.89E+00,1.94E+00,9.74E-01,0.0115535
1.91E+03,1.83E+00,1.88E+00,9.73E-01,0.012007
1.92E+03,1.76E+00,1.80E+00,9.75E-01,0.0110395
1.92E+03,1.67E+00,1.72E+00,9.73E-01,0.0118392
1.92E+03,1.62E+00,1.66E+00,9.73E-01,0.0120754
1.93E+03,1.54E+00,1.58E+00,9.73E-01,0.0118881
1.93E+03,1.45E+00,1.49E+00,9.71E-01,0.0126057
1.93E+03,1.36E+00,1.40E+00,9.72E-01,0.01224187
1.94E+03,1.28E+00,1.32E+00,9.71E-01,0.0126543
1.94E+03,1.20E+00,1.24E+00,9.72E-01,0.0125214
1.94E+03,1.11E+00,1.15E+00,9.69E-01,0.013506
1.95E+03,1.05E+00,1.09E+00,9.70E-01,0.0132306
1.95E+03,9.89E-01,1.02E+00,9.70E-01,0.0132203
1.95E+03,9.25E-01,9.55E-01,9.69E-01,0.0138549
1.96E+03,8.47E-01,8.74E-01,9.69E-01,0.0135091
1.96E+03,7.40E-01,7.63E-01,9.70E-01,0.0131599
1.96E+03,7.03E-01,7.22E-01,9.74E-01,0.0116078
1.97E+03,6.57E-01,6.78E-01,9.69E-01,0.0137894
1.97E+03,6.20E-01,6.39E-01,9.71E-01,0.0129008
1.97E+03,5.82E-01,6.01E-01,9.70E-01,0.0134286
1.98E+03,5.53E-01,5.69E-01,9.71E-01,0.01294286
1.98E+03,5.97E-01,6.12E-01,9.75E-01,0.0109778
1.98E+03,6.65E-01,6.82E-01,9.74E-01,0.0113438
1.99E+03,6.97E-01,7.18E-01,9.71E-01,0.0129481
1.99E+03,7.11E-01,7.34E-01,9.69E-01,0.01382316
1.99E+03,7.15E-01,7.39E-01,9.68E-01,0.0139219
2.00E+03,7.17E-01,7.44E-01,9.64E-01,0.01574622
2.00E+03,6.98E-01,7.20E-01,9.69E-01,0.01349
2.00E+03,6.52E-01,6.75E-01,9.67E-01,0.0146756
2.01E+03,5.91E-01,6.13E-01,9.65E-01,0.0156929
2.01E+03,5.77E-01,6.00E-01,9.62E-01,0.0166192
2.01E+03,5.73E-01,5.92E-01,9.68E-01,0.0139825
2.02E+03,5.61E-01,5.79E-01,9.70E-01,0.0134195
2.02E+03,5.52E-01,5.69E-01,9.71E-01,0.0127021
2.02E+03,5.46E-01,5.64E-01,9.67E-01,0.0144744
2.03E+03,5.37E-01,5.56E-01,9.65E-01,0.0153004
2.03E+03,5.35E-01,5.52E-01,9.68E-01,0.014168
2.03E+03,5.44E-01,5.66E-01,9.62E-01,0.016942
2.04E+03,5.86E-01,6.10E-01,9.60E-01,0.0176807
2.04E+03,6.34E-01,6.61E-01,9.58E-01,0.0184167
2.04E+03,6.79E-01,7.06E-01,9.62E-01,0.0166679
2.05E+03,7.24E-01,7.53E-01,9.62E-01,0.0169532
2.05E+03,8.31E-01,8.66E-01,9.60E-01,0.017544
2.05E+03,9.27E-01,9.65E-01,9.61E-01,0.0173599
2.06E+03,9.80E-01,1.02E+00,9.59E-01,0.0180154
2.06E+03,1.02E+00,1.06E+00,9.57E-01,0.01889195
2.06E+03,1.05E+00,1.10E+00,9.57E-01,0.01899279
2.07E+03,1.09E+00,1.14E+00,9.58E-01,0.0186696
2.07E+03,1.13E+00,1.19E+00,9.56E-01,0.0196247
2.07E+03,1.19E+00,1.24E+00,9.57E-01,0.0192986
2.08E+03,1.24E+00,1.30E+00,9.56E-01,0.0196201
2.08E+03,1.30E+00,1.36E+00,9.54E-01,0.0204464
2.08E+03,1.35E+00,1.41E+00,9.57E-01,0.0191129
2.09E+03,1.37E+00,1.44E+00,9.56E-01,0.01967006
2.09E+03,1.38E+00,1.44E+00,9.54E-01,0.0203155
2.09E+03,1.34E+00,1.41E+00,9.55E-01,0.0198337
2.10E+03,1.34E+00,1.40E+00,9.55E-01,0.0200468
2.10E+03,1.36E+00,1.43E+00,9.55E-01,0.0202071
2.10E+03,1.38E+00,1.45E+00,9.55E-01,0.0201949
2.11E+03,1.40E+00,1.47E+00,9.56E-01,0.0196443
2.11E+03,1.42E+00,1.49E+00,9.55E-01,0.0200524
2.11E+03,1.44E+00,1.51E+00,9.54E-01,0.0206544
2.12E+03,1.44E+00,1.50E+00,9.56E-01,0.0193578
2.12E+03,1.39E+00,1.46E+00,9.55E-01,0.0198083
2.12E+03,1.33E+00,1.39E+00,9.53E-01,0.0208444
2.13E+03,1.23E+00,1.29E+00,9.56E-01,0.019478
2.13E+03,1.10E+00,1.15E+00,9.57E-01,0.018968
2.13E+03,9.65E-01,1.01E+00,9.55E-01,0.0201112
2.14E+03,8.79E-01,9.20E-01,9.55E-01,0.01984692
2.14E+03,8.07E-01,8.42E-01,9.59E-01,0.0183172
2.14E+03,7.36E-01,7.67E-01,9.60E-01,0.01792534
2.15E+03,6.70E-01,7.00E-01,9.57E-01,0.0193136
2.15E+03,6.06E-01,6.33E-01,9.57E-01,0.0190813
2.16E+03,5.22E-01,5.44E-01,9.60E-01,0.01774254
2.16E+03,4.39E-01,4.57E-01,9.59E-01,0.0182982
2.16E+03,4.79E-01,4.99E-01,9.58E-01,0.0185765
2.17E+03,5.43E-01,5.63E-01,9.64E-01,0.015914
2.17E+03,5.97E-01,6.20E-01,9.63E-01,0.0161739
2.17E+03,6.23E-01,6.51E-01,9.58E-01,0.0187239
2.18E+03,6.28E-01,6.53E-01,9.61E-01,0.0170706
2.18E+03,6.43E-01,6.68E-01,9.62E-01,0.0166706
2.18E+03,6.52E-01,6.77E-01,9.62E-01,0.0166083
2.19E+03,6.86E-01,7.13E-01,9.62E-01,0.0167461
2.19E+03,7.24E-01,7.53E-01,9.62E-01,0.017034
2.19E+03,7.59E-01,7.89E-01,9.62E-01,0.01688111
2.20E+03,7.90E-01,8.22E-01,9.61E-01,0.0174696
2.20E+03,8.19E-01,8.50E-01,9.63E-01,0.0163441
2.20E+03,8.46E-01,8.77E-01,9.65E-01,0.01545671
2.21E+03,8.73E-01,9.05E-01,9.64E-01,0.01590674
2.21E+03,9.00E-01,9.32E-01,9.65E-01,0.0152511
2.21E+03,9.27E-01,9.59E-01,9.66E-01,0.0150725
2.22E+03,9.54E-01,9.89E-01,9.65E-01,0.0156846
2.22E+03,9.86E-01,1.02E+00,9.64E-01,0.01577
2.22E+03,1.02E+00,1.06E+00,9.65E-01,0.01531453
2.23E+03,1.06E+00,1.09E+00,9.65E-01,0.01539885
2.23E+03,1.09E+00,1.13E+00,9.64E-01,0.0161394
2.23E+03,1.14E+00,1.18E+00,9.65E-01,0.0154545
2.24E+03,1.18E+00,1.22E+00,9.66E-01,0.0151417
2.24E+03,1.23E+00,1.27E+00,9.67E-01,0.0147513
2.24E+03,1.28E+00,1.32E+00,9.67E-01,0.0144297
2.25E+03,1.32E+00,1.37E+00,9.68E-01,0.0139742
2.25E+03,1.37E+00,1.42E+00,9.69E-01,0.0134554
2.25E+03,1.41E+00,1.46E+00,9.69E-01,0.0138949
2.26E+03,1.46E+00,1.51E+00,9.69E-01,0.0137836
2.26E+03,1.54E+00,1.58E+00,9.69E-01,0.0137267
2.26E+03,1.60E+00,1.65E+00,9.70E-01,0.01333102
2.27E+03,1.66E+00,1.71E+00,9.70E-01,0.0130647
2.27E+03,1.75E+00,1.80E+00,9.69E-01,0.0136645
2.27E+03,1.84E+00,1.90E+00,9.70E-01,0.0131644
2.28E+03,1.96E+00,2.01E+00,9.71E-01,0.0127791
2.28E+03,2.09E+00,2.15E+00,9.72E-01,0.0124918
2.28E+03,2.25E+00,2.32E+00,9.71E-01,0.0126352
2.29E+03,2.45E+00,2.52E+00,9.71E-01,0.0126841
2.29E+03,2.63E+00,2.71E+00,9.72E-01,0.0123249
2.29E+03,2.80E+00,2.88E+00,9.72E-01,0.0121123
2.30E+03,2.95E+00,3.03E+00,9.73E-01,0.0117205
2.30E+03,3.07E+00,3.15E+00,9.73E-01,0.0117719
2.30E+03,3.18E+00,3.27E+00,9.75E-01,0.0112012
2.31E+03,3.28E+00,3.36E+00,9.75E-01,0.0111816
2.31E+03,3.36E+00,3.44E+00,9.75E-01,0.0110238
2.31E+03,3.43E+00,3.52E+00,9.75E-01,0.0109077
2.32E+03,3.52E+00,3.60E+00,9.76E-01,0.0104377
2.32E+03,3.62E+00,3.70E+00,9.77E-01,0.010219
2.32E+03,3.87E+00,3.97E+00,9.76E-01,0.0104719
2.33E+03,4.03E+00,4.13E+00,9.78E-01,0.009843173
2.33E+03,3.92E+00,4.01E+00,9.78E-01,0.009627545
2.33E+03,3.86E+00,3.94E+00,9.79E-01,0.009049144
2.34E+03,3.80E+00,3.88E+00,9.80E-01,0.008949509
2.34E+03,3.79E+00,3.86E+00,9.80E-01,0.008840998
2.34E+03,3.91E+00,3.99E+00,9.80E-01,0.008763958
2.35E+03,4.35E+00,4.44E+00,9.79E-01,0.00942167
2.35E+03,4.23E+00,4.32E+00,9.79E-01,0.009406684
2.35E+03,3.64E+00,3.72E+00,9.80E-01,0.008759763
2.36E+03,3.33E+00,3.40E+00,9.82E-01,0.008068547
2.36E+03,3.20E+00,3.26E+00,9.82E-01,0.007779362
2.36E+03,3.18E+00,3.23E+00,9.82E-01,0.007686678
2.37E+03,3.24E+00,3.30E+00,9.83E-01,0.007505882
2.37E+03,3.40E+00,3.46E+00,9.82E-01,0.007893592
2.37E+03,3.63E+00,3.69E+00,9.82E-01,0.008015978
2.38E+03,3.85E+00,3.92E+00,9.81E-01,0.00819866
2.38E+03,3.98E+00,4.05E+00,9.81E-01,0.008463258
2.38E+03,3.98E+00,4.06E+00,9.81E-01,0.008398988
2.39E+03,3.92E+00,3.99E+00,9.81E-01,0.008157292
2.39E+03,3.83E+00,3.91E+00,9.81E-01,0.008457817
2.39E+03,3.74E+00,3.82E+00,9.81E-01,0.008465849
2.40E+03,3.66E+00,3.73E+00,9.82E-01,0.008101224
2.40E+03,3.58E+00,3.64E+00,9.81E-01,0.008212747
2.40E+03,3.49E+00,3.56E+00,9.82E-01,0.008094708
2.41E+03,3.43E+00,3.49E+00,9.82E-01,0.007959691
2.41E+03,3.39E+00,3.45E+00,9.82E-01,0.007940279
2.41E+03,3.35E+00,3.41E+00,9.81E-01,0.008282918
2.42E+03,3.31E+00,3.36E+00,9.84E-01,0.007116919
2.42E+03,3.27E+00,3.32E+00,9.83E-01,0.00735813
2.43E+03,3.23E+00,3.28E+00,9.83E-01,0.007368359
2.43E+03,3.20E+00,3.25E+00,9.84E-01,0.007173426
2.43E+03,3.17E+00,3.23E+00,9.83E-01,0.007648388
2.44E+03,3.15E+00,3.20E+00,9.83E-01,0.007234341
2.44E+03,3.14E+00,3.19E+00,9.84E-01,0.00708908
2.44E+03,3.13E+00,3.18E+00,9.84E-01,0.007053083
2.45E+03,3.13E+00,3.18E+00,9.84E-01,0.006841432
2.45E+03,3.14E+00,3.19E+00,9.84E-01,0.006870622
2.45E+03,3.15E+00,3.20E+00,9.85E-01,0.006756715
2.46E+03,3.17E+00,3.22E+00,9.84E-01,0.00682316
2.46E+03,3.18E+00,3.23E+00,9.84E-01,0.006972061
2.46E+03,3.18E+00,3.23E+00,9.85E-01,0.00662689
2.47E+03,3.18E+00,3.22E+00,9.85E-01,0.00656677
2.47E+03,3.16E+00,3.21E+00,9.85E-01,0.006492773
2.47E+03,3.15E+00,3.20E+00,9.85E-01,0.006502932
2.48E+03,3.14E+00,3.18E+00,9.85E-01,0.006547653
2.48E+03,3.12E+00,3.17E+00,9.85E-01,0.006380458
2.48E+03,3.11E+00,3.16E+00,9.85E-01,0.006411713
2.49E+03,3.10E+00,3.15E+00,9.86E-01,0.006168633
2.49E+03,3.10E+00,3.14E+00,9.87E-01,0.00576953
2.49E+03,3.09E+00,3.14E+00,9.86E-01,0.006082308
2.50E+03,3.09E+00,3.13E+00,9.86E-01,0.006133653
2.50E+03,3.09E+00,3.13E+00,9.86E-01,0.006065178
2.50E+03,3.08E+00,3.13E+00,9.86E-01,0.006173945
2.51E+03,3.08E+00,3.12E+00,9.86E-01,0.005905635
2.51E+03,3.08E+00,3.12E+00,9.86E-01,0.005925279
2.51E+03,3.07E+00,3.11E+00,9.87E-01,0.005737249
2.52E+03,3.07E+00,3.11E+00,9.87E-01,0.005756068
2.52E+03,3.07E+00,3.11E+00,9.88E-01,0.005338966
2.52E+03,3.08E+00,3.12E+00,9.88E-01,0.005429933
2.53E+03,3.08E+00,3.12E+00,9.87E-01,0.005501263
2.53E+03,3.08E+00,3.12E+00,9.87E-01,0.005588694
2.53E+03,3.09E+00,3.13E+00,9.87E-01,0.005875894
2.54E+03,3.10E+00,3.14E+00,9.87E-01,0.005589539
2.54E+03,3.11E+00,3.15E+00,9.88E-01,0.005416761
2.54E+03,3.13E+00,3.17E+00,9.88E-01,0.005183148
2.55E+03,3.15E+00,3.18E+00,9.88E-01,0.005145231
2.55E+03,3.16E+00,3.20E+00,9.88E-01,0.005312656
2.55E+03,3.19E+00,3.22E+00,9.88E-01,0.005279773
2.56E+03,3.21E+00,3.25E+00,9.88E-01,0.005141241
2.56E+03,3.24E+00,3.28E+00,9.88E-01,0.00521648
2.56E+03,3.27E+00,3.31E+00,9.88E-01,0.005263939
2.57E+03,3.31E+00,3.35E+00,9.88E-01,0.005204748
2.57E+03,3.35E+00,3.39E+00,9.88E-01,0.005290673
2.57E+03,3.39E+00,3.43E+00,9.88E-01,0.005102801
2.58E+03,3.44E+00,3.48E+00,9.88E-01,0.005117062
2.58E+03,3.50E+00,3.53E+00,9.89E-01,0.00485237
2.58E+03,3.55E+00,3.59E+00,9.89E-01,0.004768082
2.59E+03,3.62E+00,3.66E+00,9.89E-01,0.004864949
2.59E+03,3.69E+00,3.73E+00,9.89E-01,0.004945165
2.59E+03,3.76E+00,3.81E+00,9.89E-01,0.004727005
2.60E+03,3.85E+00,3.89E+00,9.89E-01,0.00472104
2.60E+03,3.94E+00,3.98E+00,9.89E-01,0.004741624
2.60E+03,4.03E+00,4.08E+00,9.89E-01,0.00498669
2.61E+03,4.14E+00,4.18E+00,9.89E-01,0.004687506
2.61E+03,4.25E+00,4.30E+00,9.89E-01,0.004746801
2.61E+03,4.37E+00,4.42E+00,9.89E-01,0.004913155
2.62E+03,4.51E+00,4.56E+00,9.89E-01,0.004834845
2.62E+03,4.65E+00,4.70E+00,9.89E-01,0.004807778
2.62E+03,4.80E+00,4.86E+00,9.89E-01,0.004836847
2.63E+03,4.97E+00,5.02E+00,9.88E-01,0.005024678
2.63E+03,5.14E+00,5.20E+00,9.88E-01,0.005056867
2.63E+03,5.33E+00,5.38E+00,9.89E-01,0.004708405
2.64E+03,5.52E+00,5.58E+00,9.89E-01,0.004838471
2.64E+03,5.72E+00,5.79E+00,9.89E-01,0.004949147
2.64E+03,5.93E+00,6.00E+00,9.88E-01,0.005087887
2.65E+03,6.15E+00,6.22E+00,9.89E-01,0.004905398
2.65E+03,6.36E+00,6.43E+00,9.88E-01,0.005083181
2.65E+03,6.57E+00,6.64E+00,9.89E-01,0.00494058
2.66E+03,6.75E+00,6.83E+00,9.89E-01,0.004927493
2.66E+03,6.90E+00,6.98E+00,9.88E-01,0.005025608
2.66E+03,6.97E+00,7.05E+00,9.88E-01,0.005124902
2.67E+03,6.98E+00,7.06E+00,9.88E-01,0.005153432
2.67E+03,6.98E+00,7.06E+00,9.88E-01,0.005305904
2.67E+03,6.97E+00,7.05E+00,9.88E-01,0.005418352
2.68E+03,6.95E+00,7.04E+00,9.88E-01,0.005319382
2.68E+03,6.94E+00,7.03E+00,9.88E-01,0.005349228
2.68E+03,6.93E+00,7.01E+00,9.88E-01,0.005390646
2.69E+03,6.91E+00,7.00E+00,9.87E-01,0.005635404
2.69E+03,6.89E+00,6.99E+00,9.87E-01,0.005663287
2.70E+03,6.88E+00,6.97E+00,9.87E-01,0.005699144
2.70E+03,6.86E+00,6.95E+00,9.87E-01,0.005839621
2.70E+03,6.85E+00,6.94E+00,9.87E-01,0.00579934
2.71E+03,6.83E+00,6.92E+00,9.87E-01,0.005758135
2.71E+03,6.82E+00,6.91E+00,9.87E-01,0.005898452
2.71E+03,6.80E+00,6.89E+00,9.87E-01,0.005879224
2.72E+03,6.79E+00,6.88E+00,9.86E-01,0.006049837
2.72E+03,6.77E+00,6.87E+00,9.86E-01,0.006113375
2.72E+03,6.75E+00,6.85E+00,9.86E-01,0.00624406
2.73E+03,6.74E+00,6.84E+00,9.86E-01,0.006270217
2.73E+03,6.72E+00,6.82E+00,9.85E-01,0.006402626
2.73E+03,6.71E+00,6.81E+00,9.86E-01,0.006320875
2.74E+03,6.69E+00,6.79E+00,9.85E-01,0.00646041
2.74E+03,6.68E+00,6.78E+00,9.85E-01,0.00658184
2.74E+03,6.66E+00,6.76E+00,9.85E-01,0.006772577
2.75E+03,6.64E+00,6.75E+00,9.85E-01,0.006779737
2.75E+03,6.62E+00,6.73E+00,9.84E-01,0.006911474
2.75E+03,6.61E+00,6.72E+00,9.84E-01,0.00708627
2.76E+03,6.59E+00,6.70E+00,9.84E-01,0.007125329
2.76E+03,6.57E+00,6.68E+00,9.83E-01,0.007323708
2.76E+03,6.55E+00,6.67E+00,9.82E-01,0.007693162
2.77E+03,6.53E+00,6.65E+00,9.82E-01,0.0077638
2.77E+03,6.52E+00,6.64E+00,9.82E-01,0.007725744
2.77E+03,6.50E+00,6.62E+00,9.82E-01,0.007849009
2.78E+03,6.48E+00,6.60E+00,9.82E-01,0.008019493
2.78E+03,6.46E+00,6.59E+00,9.81E-01,0.008482254
2.78E+03,6.44E+00,6.57E+00,9.80E-01,0.008575685
2.79E+03,6.42E+00,6.55E+00,9.80E-01,0.008616157
2.79E+03,6.40E+00,6.53E+00,9.80E-01,0.008688127
2.79E+03,6.38E+00,6.52E+00,9.80E-01,0.008950857
2.80E+03,6.36E+00,6.50E+00,9.79E-01,0.009068261
2.80E+03,6.34E+00,6.48E+00,9.78E-01,0.00944043
2.80E+03,6.32E+00,6.46E+00,9.78E-01,0.009631483
2.81E+03,6.30E+00,6.44E+00,9.77E-01,0.009933403
2.81E+03,6.28E+00,6.43E+00,9.77E-01,0.0100276
2.81E+03,6.26E+00,6.41E+00,9.77E-01,0.0102421
2.82E+03,6.24E+00,6.39E+00,9.76E-01,0.0105063
2.82E+03,6.22E+00,6.37E+00,9.76E-01,0.01068733
2.82E+03,6.19E+00,6.35E+00,9.75E-01,0.0109326
2.83E+03,6.17E+00,6.33E+00,9.74E-01,0.0113623
2.83E+03,6.15E+00,6.31E+00,9.73E-01,0.0117422
2.83E+03,6.12E+00,6.29E+00,9.72E-01,0.01212296
2.84E+03,6.09E+00,6.27E+00,9.72E-01,0.0124478
2.84E+03,6.06E+00,6.24E+00,9.71E-01,0.0129351
2.84E+03,6.02E+00,6.21E+00,9.70E-01,0.0133513
2.85E+03,5.97E+00,6.17E+00,9.68E-01,0.0139468
2.85E+03,5.93E+00,6.13E+00,9.67E-01,0.0144353
2.85E+03,5.89E+00,6.10E+00,9.66E-01,0.01482174
2.86E+03,5.88E+00,6.08E+00,9.66E-01,0.0150438
2.86E+03,5.87E+00,6.08E+00,9.65E-01,0.0152809
2.86E+03,5.85E+00,6.07E+00,9.65E-01,0.0155969
2.87E+03,5.84E+00,6.05E+00,9.64E-01,0.0158752
2.87E+03,5.81E+00,6.03E+00,9.63E-01,0.0163514
2.87E+03,5.79E+00,6.02E+00,9.62E-01,0.016823
2.88E+03,5.77E+00,6.00E+00,9.61E-01,0.0172302
2.88E+03,5.75E+00,5.99E+00,9.60E-01,0.0177353
2.88E+03,5.73E+00,5.97E+00,9.59E-01,0.0182871
2.89E+03,5.70E+00,5.95E+00,9.57E-01,0.0188873
2.89E+03,5.67E+00,5.93E+00,9.56E-01,0.0194102
2.89E+03,5.63E+00,5.90E+00,9.55E-01,0.020082
2.90E+03,5.60E+00,5.87E+00,9.53E-01,0.02085448
2.90E+03,5.56E+00,5.84E+00,9.52E-01,0.0213686
2.90E+03,5.53E+00,5.81E+00,9.50E-01,0.0221896
2.91E+03,5.49E+00,5.78E+00,9.48E-01,0.0230046
2.91E+03,5.44E+00,5.75E+00,9.46E-01,0.0238815
2.91E+03,5.39E+00,5.71E+00,9.44E-01,0.0248529
2.92E+03,5.34E+00,5.66E+00,9.42E-01,0.0258824
2.92E+03,5.29E+00,5.62E+00,9.40E-01,0.0267208
2.92E+03,5.25E+00,5.59E+00,9.39E-01,0.0272255
2.93E+03,5.22E+00,5.57E+00,9.37E-01,0.0282429
2.93E+03,5.21E+00,5.57E+00,9.35E-01,0.0289754
2.93E+03,5.20E+00,5.57E+00,9.34E-01,0.0297897
2.94E+03,5.19E+00,5.56E+00,9.32E-01,0.03048183
2.94E+03,5.18E+00,5.57E+00,9.30E-01,0.0313148
2.94E+03,5.16E+00,5.56E+00,9.28E-01,0.03227527
2.95E+03,5.13E+00,5.54E+00,9.26E-01,0.0332979
2.95E+03,5.10E+00,5.52E+00,9.24E-01,0.0343844
2.95E+03,5.05E+00,5.49E+00,9.21E-01,0.0359187
2.96E+03,5.01E+00,5.46E+00,9.18E-01,0.03695593
2.96E+03,4.98E+00,5.44E+00,9.16E-01,0.0382715
2.97E+03,4.96E+00,5.43E+00,9.13E-01,0.039569
2.97E+03,4.95E+00,5.44E+00,9.11E-01,0.0404211
2.97E+03,4.95E+00,5.44E+00,9.09E-01,0.0415073
2.98E+03,4.94E+00,5.45E+00,9.06E-01,0.0427879
2.98E+03,4.92E+00,5.44E+00,9.04E-01,0.044013
2.98E+03,4.90E+00,5.44E+00,9.01E-01,0.0454816
2.99E+03,4.87E+00,5.43E+00,8.98E-01,0.046736
2.99E+03,4.84E+00,5.41E+00,8.94E-01,0.0485167
2.99E+03,4.81E+00,5.40E+00,8.91E-01,0.0500618
3.00E+03,4.78E+00,5.39E+00,8.87E-01,0.0518884
3.00E+03,4.75E+00,5.37E+00,8.84E-01,0.0535779
3.00E+03,4.71E+00,5.35E+00,8.80E-01,0.0553808
3.01E+03,4.68E+00,5.34E+00,8.76E-01,0.05730025
3.01E+03,4.64E+00,5.32E+00,8.72E-01,0.0593159
3.01E+03,4.60E+00,5.29E+00,8.69E-01,0.0611494
3.02E+03,4.55E+00,5.27E+00,8.65E-01,0.0631957
3.02E+03,4.52E+00,5.26E+00,8.60E-01,0.0654722
3.02E+03,4.49E+00,5.25E+00,8.56E-01,0.0675457
3.03E+03,4.45E+00,5.23E+00,8.51E-01,0.06998326
3.03E+03,4.41E+00,5.21E+00,8.47E-01,0.07230792
3.03E+03,4.37E+00,5.19E+00,8.41E-01,0.0750247
3.04E+03,4.33E+00,5.18E+00,8.37E-01,0.0775067
3.04E+03,4.30E+00,5.17E+00,8.31E-01,0.08016494
3.04E+03,4.25E+00,5.15E+00,8.26E-01,0.0831729
3.05E+03,4.21E+00,5.13E+00,8.21E-01,0.0857991
3.05E+03,4.17E+00,5.11E+00,8.16E-01,0.0885649
3.05E+03,4.13E+00,5.10E+00,8.10E-01,0.091348
3.06E+03,4.08E+00,5.08E+00,8.04E-01,0.0946022
3.06E+03,4.05E+00,5.07E+00,7.98E-01,0.0977616
3.06E+03,4.00E+00,5.05E+00,7.92E-01,0.101343
3.07E+03,3.95E+00,5.03E+00,7.86E-01,0.104744
3.07E+03,3.92E+00,5.02E+00,7.80E-01,0.107902
3.07E+03,3.88E+00,5.01E+00,7.74E-01,0.111405
3.08E+03,3.83E+00,4.99E+00,7.67E-01,0.115113
3.08E+03,3.78E+00,4.97E+00,7.60E-01,0.119222
3.08E+03,3.74E+00,4.96E+00,7.53E-01,0.123153
3.09E+03,3.69E+00,4.94E+00,7.46E-01,0.127017
3.09E+03,3.65E+00,4.94E+00,7.39E-01,0.131264
3.09E+03,3.60E+00,4.92E+00,7.32E-01,0.135607
3.10E+03,3.55E+00,4.90E+00,7.25E-01,0.139627
3.10E+03,3.50E+00,4.88E+00,7.18E-01,0.144161
3.10E+03,3.46E+00,4.87E+00,7.10E-01,0.148551
3.11E+03,3.41E+00,4.86E+00,7.03E-01,0.153312
3.11E+03,3.37E+00,4.85E+00,6.95E-01,0.157793
3.11E+03,3.32E+00,4.82E+00,6.88E-01,0.162679
3.12E+03,3.27E+00,4.81E+00,6.80E-01,0.167374
3.12E+03,3.22E+00,4.79E+00,6.72E-01,0.172441
3.12E+03,3.17E+00,4.77E+00,6.64E-01,0.177559
3.13E+03,3.13E+00,4.76E+00,6.57E-01,0.182572
3.13E+03,3.08E+00,4.75E+00,6.49E-01,0.187805
3.13E+03,3.03E+00,4.73E+00,6.41E-01,0.193134
3.14E+03,2.99E+00,4.72E+00,6.33E-01,0.198401
3.14E+03,2.94E+00,4.70E+00,6.26E-01,0.203384
3.14E+03,2.90E+00,4.69E+00,6.18E-01,0.208882
3.15E+03,2.85E+00,4.68E+00,6.10E-01,0.214352
3.15E+03,2.81E+00,4.66E+00,6.03E-01,0.219708
3.15E+03,2.77E+00,4.65E+00,5.96E-01,0.225006
3.16E+03,2.72E+00,4.63E+00,5.88E-01,0.230441
3.16E+03,2.68E+00,4.62E+00,5.81E-01,0.235892
3.16E+03,2.64E+00,4.60E+00,5.74E-01,0.241276
3.17E+03,2.60E+00,4.59E+00,5.67E-01,0.246468
3.17E+03,2.56E+00,4.58E+00,5.60E-01,0.251544
3.17E+03,2.53E+00,4.56E+00,5.54E-01,0.256779
3.18E+03,2.49E+00,4.54E+00,5.47E-01,0.261702
3.18E+03,2.46E+00,4.54E+00,5.41E-01,0.2666427
3.18E+03,2.42E+00,4.52E+00,5.35E-01,0.271561
3.19E+03,2.39E+00,4.52E+00,5.29E-01,0.276302
3.19E+03,2.36E+00,4.50E+00,5.24E-01,0.280534
3.19E+03,2.33E+00,4.49E+00,5.19E-01,0.28482
3.20E+03,2.30E+00,4.48E+00,5.14E-01,0.289195
3.20E+03,2.28E+00,4.48E+00,5.09E-01,0.293091
3.20E+03,2.26E+00,4.47E+00,5.05E-01,0.296826
3.21E+03,2.23E+00,4.46E+00,5.01E-01,0.30055
3.21E+03,2.21E+00,4.46E+00,4.97E-01,0.303931
3.21E+03,2.19E+00,4.45E+00,4.93E-01,0.307082
3.22E+03,2.18E+00,4.45E+00,4.90E-01,0.310079
3.22E+03,2.16E+00,4.44E+00,4.87E-01,0.312332
3.22E+03,2.15E+00,4.44E+00,4.84E-01,0.314842
3.23E+03,2.14E+00,4.44E+00,4.82E-01,0.317103
3.23E+03,2.13E+00,4.44E+00,4.80E-01,0.318799
3.24E+03,2.12E+00,4.43E+00,4.78E-01,0.320656
3.24E+03,2.11E+00,4.43E+00,4.76E-01,0.321966
3.24E+03,2.10E+00,4.44E+00,4.74E-01,0.323822
3.25E+03,2.10E+00,4.43E+00,4.73E-01,0.325135
3.25E+03,2.10E+00,4.44E+00,4.72E-01,0.326062
3.25E+03,2.09E+00,4.44E+00,4.71E-01,0.326695
3.26E+03,2.09E+00,4.44E+00,4.70E-01,0.327933
3.26E+03,2.09E+00,4.45E+00,4.69E-01,0.328781
3.26E+03,2.09E+00,4.46E+00,4.69E-01,0.328845
3.27E+03,2.09E+00,4.46E+00,4.68E-01,0.329868
3.27E+03,2.09E+00,4.47E+00,4.67E-01,0.330531
3.27E+03,2.09E+00,4.47E+00,4.67E-01,0.330595
3.28E+03,2.09E+00,4.48E+00,4.67E-01,0.330972
3.28E+03,2.09E+00,4.49E+00,4.66E-01,0.331182
3.28E+03,2.10E+00,4.50E+00,4.66E-01,0.331552
3.29E+03,2.10E+00,4.51E+00,4.66E-01,0.331809
3.29E+03,2.10E+00,4.51E+00,4.66E-01,0.332025
3.29E+03,2.10E+00,4.51E+00,4.65E-01,0.332601
3.30E+03,2.10E+00,4.52E+00,4.65E-01,0.333005
3.30E+03,2.10E+00,4.53E+00,4.64E-01,0.333531
3.30E+03,2.10E+00,4.54E+00,4.63E-01,0.334052
3.31E+03,2.10E+00,4.54E+00,4.63E-01,0.334169
3.31E+03,2.10E+00,4.54E+00,4.63E-01,0.334389
3.31E+03,2.10E+00,4.55E+00,4.63E-01,0.334796
3.32E+03,2.11E+00,4.55E+00,4.62E-01,0.33496
3.32E+03,2.10E+00,4.55E+00,4.62E-01,0.335293
3.32E+03,2.10E+00,4.56E+00,4.62E-01,0.335817
3.33E+03,2.10E+00,4.56E+00,4.61E-01,0.336026
3.33E+03,2.10E+00,4.56E+00,4.61E-01,0.335986
3.33E+03,2.11E+00,4.56E+00,4.62E-01,0.335811
3.34E+03,2.10E+00,4.56E+00,4.61E-01,0.335894
3.34E+03,2.11E+00,4.56E+00,4.61E-01,0.336018
3.34E+03,2.11E+00,4.56E+00,4.62E-01,0.335726
3.35E+03,2.11E+00,4.56E+00,4.62E-01,0.335381
3.35E+03,2.11E+00,4.56E+00,4.62E-01,0.334911
3.35E+03,2.11E+00,4.56E+00,4.63E-01,0.334463
3.36E+03,2.11E+00,4.55E+00,4.64E-01,0.333138
3.36E+03,2.12E+00,4.55E+00,4.65E-01,0.332469
3.36E+03,2.12E+00,4.54E+00,4.66E-01,0.331184
3.37E+03,2.12E+00,4.54E+00,4.68E-01,0.329916
3.37E+03,2.13E+00,4.54E+00,4.70E-01,0.327989
3.37E+03,2.14E+00,4.54E+00,4.72E-01,0.326382
3.38E+03,2.15E+00,4.53E+00,4.74E-01,0.324481
3.38E+03,2.15E+00,4.52E+00,4.76E-01,0.322191
3.38E+03,2.16E+00,4.51E+00,4.79E-01,0.319691
3.39E+03,2.17E+00,4.51E+00,4.82E-01,0.317347
3.39E+03,2.18E+00,4.50E+00,4.85E-01,0.314531
3.39E+03,2.19E+00,4.49E+00,4.88E-01,0.311613
3.40E+03,2.20E+00,4.48E+00,4.92E-01,0.308178
3.40E+03,2.21E+00,4.47E+00,4.95E-01,0.305402
3.40E+03,2.23E+00,4.47E+00,4.99E-01,0.301823
3.41E+03,2.24E+00,4.46E+00,5.03E-01,0.298297
3.41E+03,2.26E+00,4.45E+00,5.08E-01,0.294464
3.41E+03,2.27E+00,4.44E+00,5.12E-01,0.290569
3.42E+03,2.29E+00,4.42E+00,5.17E-01,0.286834
3.42E+03,2.29E+00,4.40E+00,5.21E-01,0.283086
3.42E+03,2.32E+00,4.40E+00,5.26E-01,0.278878
3.43E+03,2.33E+00,4.39E+00,5.31E-01,0.27474
3.43E+03,2.35E+00,4.38E+00,5.36E-01,0.270438
3.43E+03,2.37E+00,4.37E+00,5.41E-01,0.26649
3.44E+03,2.39E+00,4.36E+00,5.47E-01,0.262174
3.44E+03,2.40E+00,4.35E+00,5.52E-01,0.257876
3.44E+03,2.41E+00,4.33E+00,5.57E-01,0.253914
3.45E+03,2.42E+00,4.31E+00,5.63E-01,0.249653
3.45E+03,2.46E+00,4.33E+00,5.69E-01,0.245222
3.45E+03,2.48E+00,4.32E+00,5.74E-01,0.241046
3.46E+03,2.49E+00,4.31E+00,5.79E-01,0.237185
3.46E+03,2.51E+00,4.29E+00,5.85E-01,0.232748
3.46E+03,2.53E+00,4.29E+00,5.91E-01,0.228374
3.47E+03,2.55E+00,4.28E+00,5.96E-01,0.224502
3.47E+03,2.57E+00,4.27E+00,6.02E-01,0.220585
3.47E+03,2.59E+00,4.26E+00,6.08E-01,0.216386
3.48E+03,2.61E+00,4.25E+00,6.13E-01,0.212553
3.48E+03,2.61E+00,4.23E+00,6.19E-01,0.208557
3.48E+03,2.64E+00,4.23E+00,6.25E-01,0.204097
3.49E+03,2.66E+00,4.22E+00,6.31E-01,0.200113
3.49E+03,2.69E+00,4.22E+00,6.36E-01,0.196226
3.49E+03,2.70E+00,4.21E+00,6.43E-01,0.192062
3.50E+03,2.72E+00,4.20E+00,6.48E-01,0.188395
3.50E+03,2.72E+00,4.17E+00,6.54E-01,0.184573
3.51E+03,2.75E+00,4.17E+00,6.60E-01,0.180455
3.51E+03,2.77E+00,4.16E+00,6.66E-01,0.1765
3.51E+03,2.80E+00,4.17E+00,6.72E-01,0.172898
3.52E+03,2.83E+00,4.17E+00,6.78E-01,0.169055
3.52E+03,2.84E+00,4.16E+00,6.84E-01,0.165117
3.52E+03,2.84E+00,4.12E+00,6.89E-01,0.161684
3.53E+03,2.85E+00,4.10E+00,6.95E-01,0.157779
3.53E+03,2.87E+00,4.09E+00,7.02E-01,0.153842
3.53E+03,2.91E+00,4.12E+00,7.07E-01,0.150417
3.54E+03,2.92E+00,4.09E+00,7.13E-01,0.146749
3.54E+03,2.94E+00,4.10E+00,7.19E-01,0.143365
3.54E+03,2.95E+00,4.07E+00,7.24E-01,0.140048
3.55E+03,2.91E+00,3.99E+00,7.31E-01,0.136351
3.55E+03,2.96E+00,4.02E+00,7.37E-01,0.132711
3.55E+03,2.97E+00,4.00E+00,7.42E-01,0.129309
3.56E+03,3.01E+00,4.02E+00,7.48E-01,0.125887
3.56E+03,3.01E+00,3.99E+00,7.54E-01,0.122561
3.56E+03,3.00E+00,3.94E+00,7.60E-01,0.119399
3.57E+03,2.89E+00,3.78E+00,7.65E-01,0.116362
3.57E+03,2.95E+00,3.82E+00,7.71E-01,0.113054
3.57E+03,3.04E+00,3.92E+00,7.76E-01,0.109861
3.58E+03,3.04E+00,3.89E+00,7.82E-01,0.106706
3.58E+03,3.05E+00,3.87E+00,7.88E-01,0.1037
3.58E+03,3.05E+00,3.84E+00,7.93E-01,0.100737
3.59E+03,2.92E+00,3.66E+00,7.98E-01,0.0977895
3.59E+03,2.95E+00,3.67E+00,8.04E-01,0.0949465
3.59E+03,3.02E+00,3.74E+00,8.09E-01,0.092158
3.60E+03,3.02E+00,3.70E+00,8.14E-01,0.08921342
3.60E+03,3.04E+00,3.71E+00,8.20E-01,0.0863546
3.60E+03,3.08E+00,3.73E+00,8.25E-01,0.0837024
3.61E+03,3.02E+00,3.64E+00,8.30E-01,0.0809563
3.61E+03,2.95E+00,3.54E+00,8.35E-01,0.07835433
3.61E+03,2.99E+00,3.56E+00,8.40E-01,0.0759086
3.62E+03,3.02E+00,3.58E+00,8.45E-01,0.0731351
3.62E+03,2.95E+00,3.47E+00,8.50E-01,0.0703433
3.62E+03,3.14E+00,3.66E+00,8.56E-01,0.0673832
3.63E+03,2.98E+00,3.46E+00,8.61E-01,0.06479585
3.63E+03,2.84E+00,3.28E+00,8.67E-01,0.0620685
3.63E+03,3.14E+00,3.59E+00,8.73E-01,0.05893
3.64E+03,3.21E+00,3.65E+00,8.79E-01,0.0561222
3.64E+03,3.23E+00,3.66E+00,8.84E-01,0.0534437
3.64E+03,3.24E+00,3.63E+00,8.90E-01,0.0504293
3.65E+03,2.99E+00,3.34E+00,8.96E-01,0.0476048
3.65E+03,2.89E+00,3.20E+00,9.03E-01,0.0442241
3.65E+03,3.22E+00,3.55E+00,9.09E-01,0.041547
3.66E+03,3.18E+00,3.47E+00,9.16E-01,0.0381639
3.66E+03,3.37E+00,3.65E+00,9.23E-01,0.0348756
3.66E+03,3.40E+00,3.66E+00,9.29E-01,0.0321143
3.67E+03,3.30E+00,3.53E+00,9.34E-01,0.0294605
3.67E+03,3.05E+00,3.25E+00,9.40E-01,0.02701657
3.67E+03,3.09E+00,3.27E+00,9.46E-01,0.0243145
3.68E+03,3.15E+00,3.31E+00,9.52E-01,0.0215872
3.68E+03,3.43E+00,3.59E+00,9.55E-01,0.0198021
3.68E+03,3.49E+00,3.64E+00,9.60E-01,0.0177001
3.69E+03,3.21E+00,3.33E+00,9.64E-01,0.0161353
3.69E+03,3.24E+00,3.35E+00,9.67E-01,0.014458
3.69E+03,3.51E+00,3.62E+00,9.71E-01,0.0130015
3.70E+03,3.55E+00,3.65E+00,9.73E-01,0.0117695
3.70E+03,3.46E+00,3.54E+00,9.75E-01,0.0109465
3.70E+03,3.55E+00,3.63E+00,9.77E-01,0.01004416
3.71E+03,3.50E+00,3.58E+00,9.79E-01,0.009244891
3.71E+03,3.28E+00,3.35E+00,9.80E-01,0.008948425
3.71E+03,3.52E+00,3.59E+00,9.81E-01,0.008229441
3.72E+03,3.62E+00,3.69E+00,9.83E-01,0.007646762
3.72E+03,3.55E+00,3.61E+00,9.84E-01,0.007188053
3.72E+03,3.54E+00,3.59E+00,9.84E-01,0.006920002
3.73E+03,3.60E+00,3.65E+00,9.85E-01,0.00645415
3.73E+03,3.46E+00,3.51E+00,9.85E-01,0.006413472
3.73E+03,3.32E+00,3.37E+00,9.86E-01,0.006216666
3.74E+03,3.51E+00,3.56E+00,9.87E-01,0.005636622
3.74E+03,3.62E+00,3.66E+00,9.88E-01,0.005370805
3.74E+03,3.14E+00,3.18E+00,9.88E-01,0.005458897
3.75E+03,3.42E+00,3.46E+00,9.88E-01,0.00513682
3.75E+03,3.28E+00,3.32E+00,9.88E-01,0.005059719
3.75E+03,3.76E+00,3.80E+00,9.89E-01,0.004642521
3.76E+03,3.78E+00,3.82E+00,9.90E-01,0.004464698
3.76E+03,3.89E+00,3.93E+00,9.90E-01,0.004436749
3.76E+03,3.88E+00,3.92E+00,9.90E-01,0.004235444
3.77E+03,3.86E+00,3.90E+00,9.90E-01,0.004174509
3.77E+03,3.95E+00,3.99E+00,9.90E-01,0.004198771
3.78E+03,4.07E+00,4.11E+00,9.91E-01,0.003896936
3.78E+03,3.97E+00,4.01E+00,9.91E-01,0.004048579
3.78E+03,4.06E+00,4.10E+00,9.91E-01,0.004130696
3.79E+03,4.08E+00,4.12E+00,9.91E-01,0.003912323
3.79E+03,4.14E+00,4.18E+00,9.91E-01,0.003753056
3.79E+03,4.16E+00,4.20E+00,9.91E-01,0.003720898
3.80E+03,4.05E+00,4.08E+00,9.91E-01,0.003758548
3.80E+03,3.99E+00,4.02E+00,9.91E-01,0.003709197
3.80E+03,3.76E+00,3.79E+00,9.91E-01,0.003712944
3.81E+03,3.96E+00,4.00E+00,9.92E-01,0.003418929
3.81E+03,4.08E+00,4.11E+00,9.92E-01,0.003483333
3.81E+03,4.23E+00,4.26E+00,9.92E-01,0.003343206
3.82E+03,3.83E+00,3.87E+00,9.92E-01,0.003597554
3.82E+03,3.97E+00,4.00E+00,9.92E-01,0.003407183
3.82E+03,3.91E+00,3.94E+00,9.92E-01,0.003346169
3.83E+03,4.18E+00,4.21E+00,9.93E-01,0.003062499
3.83E+03,4.20E+00,4.24E+00,9.93E-01,0.003188516
3.83E+03,4.10E+00,4.13E+00,9.92E-01,0.003311021
3.84E+03,3.93E+00,3.96E+00,9.92E-01,0.003335617
3.84E+03,3.89E+00,3.91E+00,9.93E-01,0.002957822
3.84E+03,4.13E+00,4.16E+00,9.93E-01,0.002896892
3.85E+03,4.29E+00,4.32E+00,9.93E-01,0.003121904
3.85E+03,4.20E+00,4.23E+00,9.93E-01,0.002928642
3.85E+03,3.44E+00,3.47E+00,9.93E-01,0.002881134
3.86E+03,3.94E+00,3.97E+00,9.93E-01,0.003117034
3.86E+03,4.28E+00,4.31E+00,9.94E-01,0.002805892
3.86E+03,4.12E+00,4.15E+00,9.93E-01,0.003069328
3.87E+03,4.13E+00,4.16E+00,9.93E-01,0.003187353
3.87E+03,3.94E+00,3.96E+00,9.93E-01,0.002943767
3.87E+03,4.16E+00,4.19E+00,9.93E-01,0.002890614
3.88E+03,4.30E+00,4.32E+00,9.93E-01,0.002855858
3.88E+03,4.15E+00,4.18E+00,9.94E-01,0.0028149
3.88E+03,4.20E+00,4.22E+00,9.94E-01,0.002809146
3.89E+03,4.10E+00,4.13E+00,9.94E-01,0.002783749
3.89E+03,4.20E+00,4.22E+00,9.94E-01,0.002655013
3.89E+03,4.24E+00,4.27E+00,9.94E-01,0.002823186
3.90E+03,4.30E+00,4.32E+00,9.94E-01,0.002738084
3.90E+03,4.05E+00,4.08E+00,9.93E-01,0.002897647
3.90E+03,4.01E+00,4.04E+00,9.93E-01,0.002942004
3.91E+03,4.26E+00,4.29E+00,9.94E-01,0.002663872
3.91E+03,4.37E+00,4.40E+00,9.94E-01,0.002752331
3.91E+03,4.35E+00,4.38E+00,9.94E-01,0.002790089
3.92E+03,4.22E+00,4.25E+00,9.94E-01,0.002747385
3.92E+03,4.27E+00,4.29E+00,9.94E-01,0.002741006
3.92E+03,4.28E+00,4.31E+00,9.94E-01,0.002680688
3.93E+03,4.31E+00,4.34E+00,9.94E-01,0.002746973
3.93E+03,4.27E+00,4.29E+00,9.94E-01,0.002785239
3.93E+03,4.27E+00,4.30E+00,9.94E-01,0.002603096
3.94E+03,4.33E+00,4.36E+00,9.94E-01,0.002549769
3.94E+03,4.30E+00,4.33E+00,9.94E-01,0.002696486
3.94E+03,4.27E+00,4.29E+00,9.94E-01,0.002700839
3.95E+03,4.27E+00,4.30E+00,9.94E-01,0.002718213
3.95E+03,4.27E+00,4.30E+00,9.94E-01,0.002739003
3.95E+03,4.30E+00,4.33E+00,9.94E-01,0.002820718
3.96E+03,4.29E+00,4.32E+00,9.94E-01,0.002638654
3.96E+03,4.28E+00,4.31E+00,9.94E-01,0.002674711
3.96E+03,4.28E+00,4.31E+00,9.94E-01,0.002638847
3.97E+03,4.28E+00,4.30E+00,9.94E-01,0.00267741
3.97E+03,4.27E+00,4.29E+00,9.94E-01,0.002648627
3.97E+03,4.26E+00,4.28E+00,9.94E-01,0.0027193
3.98E+03,4.25E+00,4.28E+00,9.94E-01,0.002648151
3.98E+03,4.25E+00,4.27E+00,9.94E-01,0.00263339
3.98E+03,4.24E+00,4.27E+00,9.94E-01,0.002581374
3.99E+03,4.23E+00,4.26E+00,9.94E-01,0.002585471
3.99E+03,4.22E+00,4.24E+00,9.94E-01,0.002592011
3.99E+03,4.21E+00,4.24E+00,9.94E-01,0.002481181
4.00E+03,4.21E+00,4.23E+00,9.95E-01,0.002349944
4.00E+03,4.20E+00,4.23E+00,9.94E-01,0.002414504