File: Battery Data/Lydia_data/Salt water CSV/2M salt water.CSV
Wavenumber,Absorbance (I),Background (I0),T,A
4.00E+02,5.33E-02,2.55E-01,2.09E-01,0.679215
4.04E+02,5.74E-02,3.11E-01,1.85E-01,0.733534
4.07E+02,6.92E-02,3.52E-01,1.97E-01,0.705733
4.10E+02,7.96E-02,3.96E-01,2.01E-01,0.696683
4.14E+02,9.91E-02,4.41E-01,2.25E-01,0.648335
4.17E+02,1.06E-01,4.59E-01,2.31E-01,0.636784
4.20E+02,1.02E-01,5.05E-01,2.01E-01,0.695777
4.24E+02,1.24E-01,5.73E-01,2.17E-01,0.663837
4.27E+02,1.42E-01,6.34E-01,2.24E-01,0.650095
4.31E+02,1.51E-01,6.86E-01,2.20E-01,0.657891
4.34E+02,1.59E-01,7.31E-01,2.17E-01,0.66374
4.37E+02,1.74E-01,7.61E-01,2.29E-01,0.640476
4.41E+02,1.87E-01,8.09E-01,2.31E-01,0.637007
4.44E+02,1.94E-01,8.46E-01,2.30E-01,0.639057
4.47E+02,2.09E-01,8.93E-01,2.34E-01,0.631139
4.51E+02,2.21E-01,9.21E-01,2.40E-01,0.619667
4.54E+02,2.28E-01,9.43E-01,2.42E-01,0.615463
4.58E+02,2.28E-01,9.46E-01,2.41E-01,0.617352
4.61E+02,2.45E-01,1.00E+00,2.45E-01,0.611118
4.64E+02,2.56E-01,1.04E+00,2.47E-01,0.607039
4.68E+02,2.72E-01,1.07E+00,2.54E-01,0.594498
4.71E+02,2.80E-01,1.10E+00,2.55E-01,0.593965
4.74E+02,2.92E-01,1.14E+00,2.55E-01,0.592769
4.78E+02,3.11E-01,1.21E+00,2.57E-01,0.590447
4.81E+02,3.26E-01,1.26E+00,2.58E-01,0.588346
4.85E+02,3.28E-01,1.29E+00,2.54E-01,0.595056
4.88E+02,3.55E-01,1.36E+00,2.61E-01,0.583459
4.91E+02,3.76E-01,1.41E+00,2.66E-01,0.575447
4.95E+02,3.94E-01,1.47E+00,2.67E-01,0.57331
4.98E+02,4.12E-01,1.54E+00,2.68E-01,0.571934
5.01E+02,4.31E-01,1.59E+00,2.71E-01,0.567229
5.05E+02,4.54E-01,1.66E+00,2.73E-01,0.564104
5.08E+02,4.77E-01,1.73E+00,2.75E-01,0.560673
5.12E+02,5.07E-01,1.81E+00,2.80E-01,0.552914
5.15E+02,5.27E-01,1.88E+00,2.81E-01,0.551881
5.18E+02,5.46E-01,1.94E+00,2.82E-01,0.55006
5.22E+02,5.80E-01,2.04E+00,2.85E-01,0.545652
5.25E+02,6.02E-01,2.10E+00,2.87E-01,0.54198
5.28E+02,6.33E-01,2.18E+00,2.91E-01,0.536688
5.32E+02,6.56E-01,2.25E+00,2.92E-01,0.534428
5.35E+02,6.71E-01,2.29E+00,2.93E-01,0.533607
5.39E+02,6.85E-01,2.33E+00,2.94E-01,0.531217
5.42E+02,7.00E-01,2.35E+00,2.98E-01,0.526189
5.45E+02,7.17E-01,2.39E+00,3.00E-01,0.522382
5.49E+02,7.37E-01,2.41E+00,3.05E-01,0.5152
5.52E+02,7.57E-01,2.45E+00,3.09E-01,0.509989
5.55E+02,7.71E-01,2.48E+00,3.11E-01,0.507127
5.59E+02,7.90E-01,2.52E+00,3.14E-01,0.503733
5.62E+02,8.14E-01,2.56E+00,3.18E-01,0.497588
5.66E+02,8.29E-01,2.60E+00,3.19E-01,0.496428
5.69E+02,8.44E-01,2.63E+00,3.21E-01,0.493859
5.72E+02,8.70E-01,2.68E+00,3.24E-01,0.48894
5.76E+02,8.91E-01,2.71E+00,3.29E-01,0.483255
5.79E+02,9.15E-01,2.75E+00,3.33E-01,0.477637
5.82E+02,9.43E-01,2.78E+00,3.39E-01,0.470386
5.86E+02,9.59E-01,2.81E+00,3.41E-01,0.46744
5.89E+02,9.75E-01,2.84E+00,3.43E-01,0.464777
5.93E+02,9.99E-01,2.89E+00,3.45E-01,0.461795
5.96E+02,1.03E+00,2.94E+00,3.49E-01,0.456834
5.99E+02,1.05E+00,2.98E+00,3.52E-01,0.452855
6.03E+02,1.08E+00,3.03E+00,3.56E-01,0.448576
6.06E+02,1.11E+00,3.07E+00,3.60E-01,0.443369
6.09E+02,1.13E+00,3.10E+00,3.64E-01,0.438515
6.13E+02,1.16E+00,3.15E+00,3.69E-01,0.433011
6.16E+02,1.18E+00,3.18E+00,3.72E-01,0.429286
6.20E+02,1.21E+00,3.23E+00,3.75E-01,0.426319
6.23E+02,1.24E+00,3.28E+00,3.78E-01,0.422135
6.26E+02,1.27E+00,3.32E+00,3.84E-01,0.416231
6.30E+02,1.31E+00,3.36E+00,3.88E-01,0.411195
6.33E+02,1.33E+00,3.39E+00,3.91E-01,0.408254
6.36E+02,1.35E+00,3.41E+00,3.94E-01,0.404253
6.40E+02,1.38E+00,3.44E+00,3.99E-01,0.39881
6.43E+02,1.40E+00,3.47E+00,4.05E-01,0.392852
6.47E+02,1.42E+00,3.47E+00,4.08E-01,0.389118
6.50E+02,1.44E+00,3.48E+00,4.13E-01,0.38446
6.53E+02,1.46E+00,3.51E+00,4.17E-01,0.379535
6.57E+02,1.49E+00,3.53E+00,4.22E-01,0.374212
6.60E+02,1.52E+00,3.57E+00,4.25E-01,0.371503
6.63E+02,1.56E+00,3.62E+00,4.30E-01,0.366229
6.67E+02,1.36E+00,3.10E+00,4.37E-01,0.35925
6.70E+02,1.49E+00,3.38E+00,4.41E-01,0.356039
6.74E+02,1.64E+00,3.69E+00,4.44E-01,0.352182
6.77E+02,1.66E+00,3.71E+00,4.48E-01,0.348438
6.80E+02,1.70E+00,3.74E+00,4.54E-01,0.343235
6.84E+02,1.73E+00,3.79E+00,4.57E-01,0.339716
6.87E+02,1.78E+00,3.84E+00,4.63E-01,0.334076
6.90E+02,1.82E+00,3.89E+00,4.68E-01,0.3293834
6.94E+02,1.86E+00,3.95E+00,4.72E-01,0.325938
6.97E+02,1.91E+00,3.99E+00,4.78E-01,0.320418
7.01E+02,1.94E+00,4.03E+00,4.82E-01,0.316766
7.04E+02,1.98E+00,4.06E+00,4.87E-01,0.312912
7.07E+02,2.01E+00,4.09E+00,4.92E-01,0.307831
7.11E+02,2.04E+00,4.11E+00,4.97E-01,0.303619
7.14E+02,2.07E+00,4.12E+00,5.02E-01,0.298887
7.17E+02,2.10E+00,4.13E+00,5.07E-01,0.294876
7.21E+02,2.11E+00,4.13E+00,5.12E-01,0.290559
7.24E+02,2.16E+00,4.16E+00,5.18E-01,0.285772
7.28E+02,2.18E+00,4.18E+00,5.23E-01,0.281643
7.31E+02,2.21E+00,4.19E+00,5.29E-01,0.276906
7.34E+02,2.25E+00,4.20E+00,5.35E-01,0.271925
7.38E+02,2.28E+00,4.21E+00,5.40E-01,0.267595
7.41E+02,2.31E+00,4.23E+00,5.45E-01,0.263211
7.44E+02,2.34E+00,4.26E+00,5.50E-01,0.259541
7.48E+02,2.38E+00,4.28E+00,5.56E-01,0.255139
7.51E+02,2.42E+00,4.31E+00,5.61E-01,0.250925
7.55E+02,2.45E+00,4.33E+00,5.67E-01,0.246638
7.58E+02,2.49E+00,4.35E+00,5.73E-01,0.242092
7.61E+02,2.53E+00,4.37E+00,5.78E-01,0.237746
7.65E+02,2.56E+00,4.38E+00,5.84E-01,0.233403
7.68E+02,2.59E+00,4.40E+00,5.89E-01,0.229949
7.71E+02,2.63E+00,4.42E+00,5.95E-01,0.225755
7.75E+02,2.66E+00,4.43E+00,6.02E-01,0.220465
7.78E+02,2.69E+00,4.43E+00,6.07E-01,0.216468
7.82E+02,2.72E+00,4.44E+00,6.12E-01,0.2129
7.85E+02,2.75E+00,4.44E+00,6.19E-01,0.208193
7.88E+02,2.77E+00,4.43E+00,6.25E-01,0.203978
7.92E+02,2.79E+00,4.42E+00,6.30E-01,0.200716
7.95E+02,2.81E+00,4.41E+00,6.36E-01,0.196426
7.98E+02,2.83E+00,4.41E+00,6.42E-01,0.192172
8.02E+02,2.86E+00,4.41E+00,6.48E-01,0.188337
8.05E+02,2.89E+00,4.42E+00,6.54E-01,0.184166
8.09E+02,2.94E+00,4.44E+00,6.61E-01,0.179565
8.12E+02,2.98E+00,4.47E+00,6.67E-01,0.175693
8.15E+02,3.02E+00,4.48E+00,6.73E-01,0.171889
8.19E+02,3.05E+00,4.50E+00,6.79E-01,0.168156
8.22E+02,3.09E+00,4.51E+00,6.86E-01,0.163754
8.25E+02,3.13E+00,4.52E+00,6.91E-01,0.16034
8.29E+02,3.16E+00,4.53E+00,6.97E-01,0.156485
8.32E+02,3.20E+00,4.54E+00,7.05E-01,0.151953
8.36E+02,3.23E+00,4.54E+00,7.11E-01,0.148009
8.39E+02,3.25E+00,4.54E+00,7.17E-01,0.144615
8.42E+02,3.28E+00,4.54E+00,7.22E-01,0.141451
8.46E+02,3.32E+00,4.56E+00,7.28E-01,0.137721
8.49E+02,3.36E+00,4.58E+00,7.34E-01,0.134386
8.52E+02,3.40E+00,4.60E+00,7.40E-01,0.130844
8.56E+02,3.45E+00,4.62E+00,7.46E-01,0.127289
8.59E+02,3.49E+00,4.65E+00,7.51E-01,0.12421
8.63E+02,3.53E+00,4.67E+00,7.57E-01,0.121006
8.66E+02,3.58E+00,4.70E+00,7.62E-01,0.118095
8.69E+02,3.63E+00,4.73E+00,7.68E-01,0.114517
8.73E+02,3.68E+00,4.76E+00,7.74E-01,0.111268
8.76E+02,3.74E+00,4.79E+00,7.79E-01,0.108242
8.79E+02,3.79E+00,4.83E+00,7.85E-01,0.104914
8.83E+02,3.84E+00,4.86E+00,7.90E-01,0.10244
8.86E+02,3.89E+00,4.89E+00,7.95E-01,0.0996935
8.90E+02,3.94E+00,4.92E+00,8.00E-01,0.0971237
8.93E+02,3.99E+00,4.95E+00,8.05E-01,0.0943427
8.96E+02,4.03E+00,4.99E+00,8.08E-01,0.0927433
9.00E+02,4.08E+00,5.02E+00,8.13E-01,0.0901168
9.03E+02,4.13E+00,5.06E+00,8.17E-01,0.0877315
9.06E+02,4.19E+00,5.10E+00,8.21E-01,0.085519
9.10E+02,4.24E+00,5.14E+00,8.25E-01,0.08356549
9.13E+02,4.29E+00,5.18E+00,8.29E-01,0.0813317
9.17E+02,4.35E+00,5.22E+00,8.33E-01,0.07929986
9.20E+02,4.40E+00,5.26E+00,8.36E-01,0.0776455
9.23E+02,4.46E+00,5.31E+00,8.40E-01,0.075714
9.27E+02,4.52E+00,5.37E+00,8.42E-01,0.0744502
9.30E+02,4.58E+00,5.42E+00,8.45E-01,0.0729206
9.33E+02,4.64E+00,5.47E+00,8.49E-01,0.0708409
9.37E+02,4.70E+00,5.52E+00,8.52E-01,0.0695491
9.40E+02,4.76E+00,5.57E+00,8.55E-01,0.0679866
9.44E+02,4.82E+00,5.62E+00,8.57E-01,0.0669554
9.47E+02,4.87E+00,5.67E+00,8.60E-01,0.0656752
9.50E+02,4.92E+00,5.71E+00,8.62E-01,0.0645603
9.54E+02,4.96E+00,5.75E+00,8.64E-01,0.0634838
9.57E+02,5.01E+00,5.79E+00,8.66E-01,0.0625254
9.60E+02,5.05E+00,5.82E+00,8.68E-01,0.0615641
9.64E+02,5.10E+00,5.85E+00,8.70E-01,0.0602408
9.67E+02,5.13E+00,5.88E+00,8.72E-01,0.0596994
9.71E+02,5.15E+00,5.90E+00,8.73E-01,0.0591427
9.74E+02,5.18E+00,5.92E+00,8.74E-01,0.0583103
9.77E+02,5.21E+00,5.94E+00,8.76E-01,0.0573984
9.81E+02,5.23E+00,5.96E+00,8.77E-01,0.056763
9.84E+02,5.24E+00,5.97E+00,8.79E-01,0.0561678
9.87E+02,5.26E+00,5.97E+00,8.81E-01,0.0552037
9.91E+02,5.28E+00,5.99E+00,8.81E-01,0.0549382
9.94E+02,5.29E+00,6.00E+00,8.82E-01,0.05449287
9.98E+02,5.31E+00,6.01E+00,8.83E-01,0.0539812
1.00E+03,5.31E+00,6.01E+00,8.84E-01,0.0533635
1.00E+03,5.31E+00,6.00E+00,8.85E-01,0.0532064
1.01E+03,5.30E+00,5.98E+00,8.86E-01,0.0527142
1.01E+03,5.27E+00,5.95E+00,8.87E-01,0.0522619
1.01E+03,5.24E+00,5.91E+00,8.86E-01,0.0525293
1.02E+03,5.21E+00,5.88E+00,8.87E-01,0.0522735
1.02E+03,5.19E+00,5.84E+00,8.88E-01,0.0515934
1.02E+03,5.16E+00,5.81E+00,8.89E-01,0.0511705
1.03E+03,5.13E+00,5.78E+00,8.89E-01,0.0512135
1.03E+03,5.11E+00,5.74E+00,8.90E-01,0.0507873
1.03E+03,5.08E+00,5.71E+00,8.91E-01,0.0501532
1.04E+03,5.06E+00,5.68E+00,8.91E-01,0.05034844
1.04E+03,5.02E+00,5.63E+00,8.91E-01,0.05016948
1.04E+03,4.98E+00,5.59E+00,8.92E-01,0.0498004
1.05E+03,4.94E+00,5.54E+00,8.92E-01,0.0494751
1.05E+03,4.91E+00,5.51E+00,8.92E-01,0.04962989
1.05E+03,4.89E+00,5.48E+00,8.93E-01,0.049338
1.06E+03,4.87E+00,5.45E+00,8.94E-01,0.0488533
1.06E+03,4.86E+00,5.44E+00,8.94E-01,0.0485189
1.07E+03,4.86E+00,5.43E+00,8.95E-01,0.0483022
1.07E+03,4.86E+00,5.43E+00,8.95E-01,0.0482321
1.07E+03,4.85E+00,5.42E+00,8.96E-01,0.0477419
1.08E+03,4.85E+00,5.42E+00,8.95E-01,0.0482474
1.08E+03,4.88E+00,5.46E+00,8.94E-01,0.04855302
1.08E+03,4.92E+00,5.49E+00,8.95E-01,0.0479436
1.09E+03,4.95E+00,5.53E+00,8.95E-01,0.0479703
1.09E+03,4.98E+00,5.57E+00,8.95E-01,0.0480747
1.09E+03,5.02E+00,5.61E+00,8.95E-01,0.0482122
1.10E+03,5.07E+00,5.66E+00,8.95E-01,0.0481241
1.10E+03,5.13E+00,5.72E+00,8.96E-01,0.0475805
1.10E+03,5.18E+00,5.79E+00,8.96E-01,0.0476386
1.11E+03,5.25E+00,5.86E+00,8.96E-01,0.0474773
1.11E+03,5.32E+00,5.94E+00,8.97E-01,0.04735
1.11E+03,5.40E+00,6.02E+00,8.97E-01,0.0470297
1.12E+03,5.49E+00,6.12E+00,8.98E-01,0.0469235
1.12E+03,5.58E+00,6.22E+00,8.98E-01,0.0469118
1.12E+03,5.67E+00,6.31E+00,8.98E-01,0.0467854
1.13E+03,5.76E+00,6.42E+00,8.98E-01,0.0468891
1.13E+03,5.85E+00,6.51E+00,8.99E-01,0.0462744
1.13E+03,5.93E+00,6.59E+00,8.99E-01,0.04633308
1.14E+03,6.00E+00,6.68E+00,8.98E-01,0.0465746
1.14E+03,6.05E+00,6.73E+00,8.98E-01,0.04654833
1.14E+03,6.10E+00,6.79E+00,8.99E-01,0.0462667
1.15E+03,6.19E+00,6.89E+00,8.99E-01,0.0462907
1.15E+03,6.27E+00,6.97E+00,9.00E-01,0.0456497
1.15E+03,6.33E+00,7.04E+00,8.99E-01,0.0462437
1.16E+03,6.39E+00,7.10E+00,8.99E-01,0.0461531
1.16E+03,6.45E+00,7.17E+00,8.99E-01,0.0460838
1.16E+03,6.51E+00,7.24E+00,9.00E-01,0.0459559
1.17E+03,6.58E+00,7.31E+00,8.99E-01,0.0461843
1.17E+03,6.64E+00,7.39E+00,8.99E-01,0.0460504
1.17E+03,6.71E+00,7.46E+00,9.00E-01,0.0459112
1.18E+03,6.75E+00,7.51E+00,8.99E-01,0.0460737
1.18E+03,6.77E+00,7.53E+00,9.00E-01,0.0458837
1.18E+03,6.86E+00,7.62E+00,9.00E-01,0.0456141
1.19E+03,6.93E+00,7.70E+00,9.00E-01,0.04573
1.19E+03,6.98E+00,7.76E+00,9.00E-01,0.0456956
1.19E+03,7.03E+00,7.81E+00,9.00E-01,0.04591735
1.20E+03,7.07E+00,7.86E+00,9.00E-01,0.04584361
1.20E+03,7.13E+00,7.92E+00,9.00E-01,0.0458228
1.20E+03,7.18E+00,7.97E+00,9.00E-01,0.045705
1.21E+03,7.22E+00,8.02E+00,9.00E-01,0.0458279
1.21E+03,7.26E+00,8.07E+00,9.00E-01,0.0457187
1.21E+03,7.30E+00,8.11E+00,9.00E-01,0.0458829
1.22E+03,7.34E+00,8.16E+00,9.00E-01,0.0459327
1.22E+03,7.38E+00,8.20E+00,9.00E-01,0.0458066
1.22E+03,7.42E+00,8.25E+00,9.00E-01,0.0455952
1.23E+03,7.46E+00,8.29E+00,9.00E-01,0.0458528
1.23E+03,7.50E+00,8.34E+00,9.00E-01,0.0458566
1.23E+03,7.55E+00,8.39E+00,9.00E-01,0.0458434
1.24E+03,7.59E+00,8.44E+00,9.00E-01,0.0457783
1.24E+03,7.63E+00,8.48E+00,9.00E-01,0.0458874
1.24E+03,7.65E+00,8.51E+00,9.00E-01,0.0458159
1.25E+03,7.68E+00,8.53E+00,9.00E-01,0.0457322
1.25E+03,7.70E+00,8.55E+00,9.00E-01,0.045876
1.25E+03,7.69E+00,8.54E+00,9.00E-01,0.04594069
1.26E+03,7.65E+00,8.50E+00,8.99E-01,0.0462237
1.26E+03,7.60E+00,8.46E+00,8.98E-01,0.0464948
1.26E+03,7.64E+00,8.50E+00,8.99E-01,0.0463562
1.27E+03,7.71E+00,8.57E+00,8.99E-01,0.0460617
1.27E+03,7.77E+00,8.63E+00,9.00E-01,0.0455494
1.27E+03,7.83E+00,8.70E+00,9.00E-01,0.04553998
1.28E+03,7.87E+00,8.74E+00,9.00E-01,0.0455881
1.28E+03,7.90E+00,8.77E+00,9.01E-01,0.0453251
1.28E+03,7.92E+00,8.79E+00,9.01E-01,0.0452206
1.29E+03,7.93E+00,8.80E+00,9.01E-01,0.0452496
1.29E+03,7.96E+00,8.83E+00,9.01E-01,0.04516673
1.29E+03,7.96E+00,8.84E+00,9.01E-01,0.0453994
1.30E+03,7.97E+00,8.84E+00,9.01E-01,0.045302
1.30E+03,7.98E+00,8.86E+00,9.01E-01,0.0452519
1.30E+03,7.99E+00,8.87E+00,9.01E-01,0.0452373
1.31E+03,8.01E+00,8.88E+00,9.01E-01,0.0450582
1.31E+03,8.01E+00,8.88E+00,9.02E-01,0.0448623
1.31E+03,8.01E+00,8.89E+00,9.02E-01,0.0449522
1.32E+03,8.01E+00,8.88E+00,9.01E-01,0.0450857
1.32E+03,8.06E+00,8.93E+00,9.02E-01,0.0448036
1.32E+03,8.08E+00,8.96E+00,9.02E-01,0.0449098
1.33E+03,8.08E+00,8.95E+00,9.02E-01,0.0447741
1.33E+03,8.06E+00,8.94E+00,9.02E-01,0.0448457
1.34E+03,8.04E+00,8.91E+00,9.02E-01,0.0446778
1.34E+03,7.90E+00,8.76E+00,9.02E-01,0.044838
1.34E+03,7.97E+00,8.83E+00,9.02E-01,0.0447147
1.35E+03,8.02E+00,8.88E+00,9.02E-01,0.0445936
1.35E+03,7.98E+00,8.85E+00,9.02E-01,0.04476921
1.35E+03,7.95E+00,8.81E+00,9.02E-01,0.04455839
1.36E+03,7.90E+00,8.76E+00,9.02E-01,0.0445979
1.36E+03,7.83E+00,8.68E+00,9.02E-01,0.0447109
1.36E+03,7.59E+00,8.41E+00,9.02E-01,0.04466472
1.37E+03,7.73E+00,8.57E+00,9.02E-01,0.0445738
1.37E+03,7.75E+00,8.59E+00,9.02E-01,0.0446816
1.37E+03,7.71E+00,8.55E+00,9.02E-01,0.0446791
1.38E+03,7.66E+00,8.49E+00,9.03E-01,0.0445044
1.38E+03,7.77E+00,8.61E+00,9.03E-01,0.0444117
1.38E+03,7.71E+00,8.54E+00,9.02E-01,0.04457
1.39E+03,7.54E+00,8.35E+00,9.03E-01,0.0444793
1.39E+03,7.64E+00,8.47E+00,9.03E-01,0.0444029
1.39E+03,7.71E+00,8.53E+00,9.03E-01,0.0442997
1.40E+03,7.49E+00,8.29E+00,9.03E-01,0.044292
1.40E+03,7.55E+00,8.36E+00,9.03E-01,0.04446282
1.40E+03,7.76E+00,8.60E+00,9.03E-01,0.0443247
1.41E+03,7.70E+00,8.53E+00,9.03E-01,0.0444146
1.41E+03,7.80E+00,8.64E+00,9.03E-01,0.0443832
1.41E+03,7.79E+00,8.63E+00,9.03E-01,0.0442664
1.42E+03,7.63E+00,8.45E+00,9.03E-01,0.044329
1.42E+03,7.09E+00,7.85E+00,9.02E-01,0.0446863
1.42E+03,7.64E+00,8.46E+00,9.02E-01,0.0445744
1.43E+03,7.75E+00,8.58E+00,9.03E-01,0.0443994
1.43E+03,7.64E+00,8.46E+00,9.03E-01,0.0444572
1.43E+03,7.73E+00,8.57E+00,9.02E-01,0.0446817
1.44E+03,7.13E+00,7.91E+00,9.02E-01,0.04500312
1.44E+03,7.74E+00,8.58E+00,9.02E-01,0.044779
1.44E+03,7.88E+00,8.73E+00,9.02E-01,0.0447372
1.45E+03,7.75E+00,8.60E+00,9.02E-01,0.0449125
1.45E+03,7.80E+00,8.65E+00,9.02E-01,0.0449173
1.45E+03,7.79E+00,8.63E+00,9.02E-01,0.0449458
1.46E+03,6.68E+00,7.42E+00,9.01E-01,0.0454399
1.46E+03,7.57E+00,8.40E+00,9.01E-01,0.0455042
1.46E+03,7.74E+00,8.59E+00,9.01E-01,0.0452523
1.47E+03,7.79E+00,8.65E+00,9.00E-01,0.045564
1.47E+03,7.76E+00,8.62E+00,9.00E-01,0.0456626
1.47E+03,7.23E+00,8.03E+00,9.00E-01,0.045864
1.48E+03,7.82E+00,8.68E+00,9.00E-01,0.045696
1.48E+03,8.12E+00,9.03E+00,9.00E-01,0.0457797
1.48E+03,8.16E+00,9.07E+00,9.00E-01,0.0459704
1.49E+03,7.83E+00,8.71E+00,8.99E-01,0.0464767
1.49E+03,7.59E+00,8.46E+00,8.98E-01,0.0467007
1.49E+03,7.96E+00,8.87E+00,8.98E-01,0.0466566
1.50E+03,7.43E+00,8.28E+00,8.97E-01,0.0472056
1.50E+03,7.89E+00,8.80E+00,8.96E-01,0.0474719
1.50E+03,7.58E+00,8.46E+00,8.96E-01,0.0478389
1.51E+03,6.47E+00,7.24E+00,8.94E-01,0.04854
1.51E+03,7.58E+00,8.48E+00,8.94E-01,0.0485263
1.51E+03,7.70E+00,8.61E+00,8.93E-01,0.0489699
1.52E+03,7.32E+00,8.20E+00,8.92E-01,0.0497279
1.52E+03,6.80E+00,7.63E+00,8.91E-01,0.05014043
1.52E+03,7.19E+00,8.07E+00,8.90E-01,0.05059
1.53E+03,7.41E+00,8.33E+00,8.89E-01,0.0511513
1.53E+03,7.54E+00,8.49E+00,8.88E-01,0.0518019
1.53E+03,7.10E+00,8.02E+00,8.86E-01,0.0527089
1.54E+03,6.75E+00,7.64E+00,8.84E-01,0.053487
1.54E+03,5.82E+00,6.61E+00,8.81E-01,0.05487977
1.54E+03,6.57E+00,7.46E+00,8.80E-01,0.0556506
1.55E+03,7.07E+00,8.05E+00,8.78E-01,0.0563058
1.55E+03,7.04E+00,8.04E+00,8.76E-01,0.0574711
1.55E+03,6.69E+00,7.67E+00,8.73E-01,0.0591419
1.56E+03,5.68E+00,6.53E+00,8.70E-01,0.0605322
1.56E+03,6.25E+00,7.22E+00,8.66E-01,0.0623528
1.56E+03,7.05E+00,8.17E+00,8.63E-01,0.0639301
1.57E+03,6.84E+00,7.96E+00,8.59E-01,0.06606197
1.57E+03,6.82E+00,7.99E+00,8.54E-01,0.0685707
1.57E+03,6.51E+00,7.67E+00,8.49E-01,0.0711218
1.58E+03,6.57E+00,7.80E+00,8.42E-01,0.0745879
1.58E+03,6.92E+00,8.28E+00,8.36E-01,0.077817
1.58E+03,6.85E+00,8.27E+00,8.28E-01,0.0817875
1.59E+03,6.78E+00,8.26E+00,8.20E-01,0.0860443
1.59E+03,6.68E+00,8.25E+00,8.10E-01,0.0912988
1.59E+03,6.57E+00,8.21E+00,8.00E-01,0.0970963
1.60E+03,6.49E+00,8.24E+00,7.87E-01,0.103895
1.60E+03,6.35E+00,8.21E+00,7.74E-01,0.111046
1.60E+03,6.23E+00,8.19E+00,7.60E-01,0.118969
1.61E+03,6.05E+00,8.12E+00,7.46E-01,0.127525
1.61E+03,5.94E+00,8.15E+00,7.30E-01,0.13682
1.62E+03,5.40E+00,7.55E+00,7.15E-01,0.145786
1.62E+03,5.34E+00,7.63E+00,6.99E-01,0.155334
1.62E+03,5.32E+00,7.75E+00,6.87E-01,0.162956
1.63E+03,5.22E+00,7.72E+00,6.77E-01,0.169649
1.63E+03,5.22E+00,7.80E+00,6.69E-01,0.17447
1.63E+03,5.22E+00,7.85E+00,6.65E-01,0.177162
1.64E+03,4.53E+00,6.82E+00,6.64E-01,0.177985
1.64E+03,5.05E+00,7.59E+00,6.66E-01,0.176661
1.64E+03,5.22E+00,7.78E+00,6.71E-01,0.173574
1.65E+03,4.75E+00,7.01E+00,6.77E-01,0.169142
1.65E+03,4.98E+00,7.25E+00,6.87E-01,0.163337
1.65E+03,4.17E+00,5.99E+00,6.96E-01,0.157288
1.66E+03,4.98E+00,7.02E+00,7.09E-01,0.149419
1.66E+03,5.53E+00,7.67E+00,7.21E-01,0.141857
1.66E+03,5.35E+00,7.28E+00,7.34E-01,0.134126
1.67E+03,5.63E+00,7.52E+00,7.48E-01,0.126156
1.67E+03,5.27E+00,6.92E+00,7.61E-01,0.118519
1.67E+03,5.55E+00,7.16E+00,7.75E-01,0.110746
1.68E+03,5.45E+00,6.91E+00,7.89E-01,0.103175
1.68E+03,5.85E+00,7.30E+00,8.01E-01,0.0961341
1.68E+03,5.31E+00,6.52E+00,8.14E-01,0.0895568
1.69E+03,5.39E+00,6.51E+00,8.27E-01,0.0824098
1.69E+03,6.00E+00,7.15E+00,8.39E-01,0.0761877
1.69E+03,6.02E+00,7.09E+00,8.50E-01,0.0706252
1.70E+03,5.32E+00,6.19E+00,8.60E-01,0.0654618
1.70E+03,5.11E+00,5.87E+00,8.70E-01,0.0606876
1.70E+03,5.78E+00,6.56E+00,8.80E-01,0.0554606
1.71E+03,5.92E+00,6.66E+00,8.89E-01,0.0511938
1.71E+03,6.19E+00,6.90E+00,8.96E-01,0.0475155
1.71E+03,6.03E+00,6.68E+00,9.04E-01,0.04406934
1.72E+03,5.42E+00,5.96E+00,9.10E-01,0.0411824
1.72E+03,5.82E+00,6.36E+00,9.15E-01,0.0383627
1.72E+03,6.16E+00,6.69E+00,9.21E-01,0.035907
1.73E+03,6.18E+00,6.68E+00,9.25E-01,0.0339658
1.73E+03,5.99E+00,6.45E+00,9.29E-01,0.032083
1.73E+03,5.27E+00,5.66E+00,9.32E-01,0.0305404
1.74E+03,5.78E+00,6.17E+00,9.36E-01,0.0286065
1.74E+03,5.73E+00,6.11E+00,9.39E-01,0.0274092
1.74E+03,5.89E+00,6.26E+00,9.41E-01,0.026271
1.75E+03,5.81E+00,6.16E+00,9.44E-01,0.0249455
1.75E+03,5.54E+00,5.85E+00,9.47E-01,0.0237912
1.75E+03,5.81E+00,6.12E+00,9.49E-01,0.0229294
1.76E+03,5.75E+00,6.04E+00,9.51E-01,0.021822
1.76E+03,5.69E+00,5.97E+00,9.53E-01,0.0210345
1.76E+03,5.69E+00,5.96E+00,9.54E-01,0.0203371
1.77E+03,5.58E+00,5.84E+00,9.56E-01,0.0196746
1.77E+03,5.30E+00,5.54E+00,9.57E-01,0.0190674
1.77E+03,5.20E+00,5.42E+00,9.59E-01,0.0182261
1.78E+03,5.45E+00,5.68E+00,9.60E-01,0.0178237
1.78E+03,5.33E+00,5.55E+00,9.60E-01,0.0175241
1.78E+03,5.28E+00,5.49E+00,9.62E-01,0.0168146
1.79E+03,5.28E+00,5.48E+00,9.63E-01,0.0165702
1.79E+03,4.99E+00,5.18E+00,9.63E-01,0.0164052
1.79E+03,4.93E+00,5.11E+00,9.64E-01,0.0159032
1.80E+03,5.02E+00,5.20E+00,9.65E-01,0.0152517
1.80E+03,4.84E+00,5.02E+00,9.66E-01,0.0152174
1.80E+03,4.86E+00,5.03E+00,9.66E-01,0.0150084
1.81E+03,4.76E+00,4.93E+00,9.67E-01,0.0147944
1.81E+03,4.57E+00,4.72E+00,9.67E-01,0.0145363
1.81E+03,4.44E+00,4.59E+00,9.68E-01,0.0143434
1.82E+03,4.14E+00,4.27E+00,9.68E-01,0.0141496
1.82E+03,3.98E+00,4.11E+00,9.68E-01,0.0139378
1.82E+03,3.80E+00,3.92E+00,9.69E-01,0.01375447
1.83E+03,3.71E+00,3.83E+00,9.68E-01,0.01390258
1.83E+03,3.60E+00,3.71E+00,9.69E-01,0.0136531
1.83E+03,3.61E+00,3.72E+00,9.70E-01,0.0134335
1.84E+03,3.50E+00,3.61E+00,9.70E-01,0.0133379
1.84E+03,3.37E+00,3.48E+00,9.69E-01,0.0136246
1.84E+03,3.11E+00,3.20E+00,9.71E-01,0.0126609
1.85E+03,3.19E+00,3.29E+00,9.72E-01,0.0125416
1.85E+03,3.13E+00,3.23E+00,9.71E-01,0.0129299
1.85E+03,3.05E+00,3.15E+00,9.70E-01,0.0130245
1.86E+03,2.97E+00,3.06E+00,9.71E-01,0.0127693
1.86E+03,2.90E+00,2.98E+00,9.72E-01,0.0124254
1.86E+03,2.81E+00,2.90E+00,9.71E-01,0.0125648
1.87E+03,2.64E+00,2.72E+00,9.72E-01,0.0125239
1.87E+03,2.65E+00,2.73E+00,9.72E-01,0.0122699
1.87E+03,2.61E+00,2.69E+00,9.72E-01,0.0124703
1.88E+03,2.54E+00,2.61E+00,9.72E-01,0.0123614
1.88E+03,2.46E+00,2.53E+00,9.73E-01,0.0120738
1.89E+03,2.39E+00,2.45E+00,9.73E-01,0.012027
1.89E+03,2.28E+00,2.35E+00,9.71E-01,0.012682
1.89E+03,2.23E+00,2.30E+00,9.71E-01,0.0126249
1.90E+03,2.16E+00,2.22E+00,9.72E-01,0.01218993
1.90E+03,2.11E+00,2.17E+00,9.73E-01,0.0120996
1.90E+03,2.04E+00,2.09E+00,9.72E-01,0.0124007
1.91E+03,1.97E+00,2.02E+00,9.73E-01,0.0117812
1.91E+03,1.89E+00,1.94E+00,9.74E-01,0.0115024
1.91E+03,1.83E+00,1.88E+00,9.72E-01,0.0123014
1.92E+03,1.75E+00,1.80E+00,9.74E-01,0.0115542
1.92E+03,1.67E+00,1.72E+00,9.71E-01,0.0127372
1.92E+03,1.62E+00,1.66E+00,9.72E-01,0.01218625
1.93E+03,1.54E+00,1.58E+00,9.74E-01,0.0113854
1.93E+03,1.45E+00,1.49E+00,9.71E-01,0.0128578
1.93E+03,1.36E+00,1.40E+00,9.72E-01,0.0124015
1.94E+03,1.28E+00,1.32E+00,9.71E-01,0.0127407
1.94E+03,1.20E+00,1.24E+00,9.70E-01,0.0132882
1.94E+03,1.11E+00,1.15E+00,9.71E-01,0.01276993
1.95E+03,1.06E+00,1.09E+00,9.71E-01,0.0126461
1.95E+03,9.91E-01,1.02E+00,9.71E-01,0.0125844
1.95E+03,9.27E-01,9.55E-01,9.71E-01,0.0128978
1.96E+03,8.49E-01,8.74E-01,9.71E-01,0.0127948
1.96E+03,7.44E-01,7.63E-01,9.75E-01,0.0108239
1.96E+03,7.06E-01,7.22E-01,9.78E-01,0.009871454
1.97E+03,6.57E-01,6.78E-01,9.68E-01,0.0141936
1.97E+03,6.21E-01,6.39E-01,9.72E-01,0.0121563
1.97E+03,5.86E-01,6.01E-01,9.75E-01,0.0111124
1.98E+03,5.54E-01,5.69E-01,9.73E-01,0.012055
1.98E+03,5.96E-01,6.12E-01,9.73E-01,0.0118766
1.98E+03,6.63E-01,6.82E-01,9.72E-01,0.0123351
1.99E+03,6.96E-01,7.18E-01,9.70E-01,0.0134063
1.99E+03,7.10E-01,7.34E-01,9.67E-01,0.0144253
1.99E+03,7.16E-01,7.39E-01,9.69E-01,0.0136023
2.00E+03,7.18E-01,7.44E-01,9.65E-01,0.0153278
2.00E+03,6.99E-01,7.20E-01,9.71E-01,0.01265598
2.00E+03,6.54E-01,6.75E-01,9.70E-01,0.0132756
2.01E+03,5.93E-01,6.13E-01,9.67E-01,0.0146464
2.01E+03,5.78E-01,6.00E-01,9.63E-01,0.0162717
2.01E+03,5.72E-01,5.92E-01,9.67E-01,0.0145292
2.02E+03,5.59E-01,5.79E-01,9.66E-01,0.0150978
2.02E+03,5.52E-01,5.69E-01,9.71E-01,0.0127051
2.02E+03,5.45E-01,5.64E-01,9.67E-01,0.0144929
2.03E+03,5.36E-01,5.56E-01,9.63E-01,0.016161
2.03E+03,5.34E-01,5.52E-01,9.68E-01,0.0143453
2.03E+03,5.45E-01,5.66E-01,9.64E-01,0.0159046
2.04E+03,5.89E-01,6.10E-01,9.66E-01,0.0152443
2.04E+03,6.36E-01,6.61E-01,9.62E-01,0.0168953
2.04E+03,6.77E-01,7.06E-01,9.59E-01,0.0179648
2.05E+03,7.24E-01,7.53E-01,9.62E-01,0.0167704
2.05E+03,8.30E-01,8.66E-01,9.59E-01,0.018383
2.05E+03,9.24E-01,9.65E-01,9.57E-01,0.0190104
2.06E+03,9.78E-01,1.02E+00,9.58E-01,0.01879766
2.06E+03,1.02E+00,1.06E+00,9.57E-01,0.0192525
2.06E+03,1.05E+00,1.10E+00,9.57E-01,0.0192545
2.07E+03,1.09E+00,1.14E+00,9.56E-01,0.0197568
2.07E+03,1.13E+00,1.19E+00,9.55E-01,0.0199264
2.07E+03,1.18E+00,1.24E+00,9.55E-01,0.0200351
2.08E+03,1.24E+00,1.30E+00,9.56E-01,0.019318
2.08E+03,1.30E+00,1.36E+00,9.52E-01,0.02113615
2.08E+03,1.34E+00,1.41E+00,9.55E-01,0.0199098
2.09E+03,1.37E+00,1.44E+00,9.55E-01,0.0197744
2.09E+03,1.38E+00,1.44E+00,9.53E-01,0.0206876
2.09E+03,1.34E+00,1.41E+00,9.55E-01,0.02012991
2.10E+03,1.34E+00,1.40E+00,9.54E-01,0.0203818
2.10E+03,1.36E+00,1.43E+00,9.55E-01,0.0201784
2.10E+03,1.38E+00,1.45E+00,9.54E-01,0.0203623
2.11E+03,1.40E+00,1.47E+00,9.55E-01,0.0199945
2.11E+03,1.42E+00,1.49E+00,9.55E-01,0.02000835
2.11E+03,1.44E+00,1.51E+00,9.54E-01,0.0206686
2.12E+03,1.43E+00,1.50E+00,9.54E-01,0.0202401
2.12E+03,1.39E+00,1.46E+00,9.55E-01,0.01987772
2.12E+03,1.33E+00,1.39E+00,9.54E-01,0.0205106
2.13E+03,1.23E+00,1.29E+00,9.56E-01,0.0194829
2.13E+03,1.10E+00,1.15E+00,9.58E-01,0.0188284
2.13E+03,9.65E-01,1.01E+00,9.55E-01,0.0197712
2.14E+03,8.82E-01,9.20E-01,9.59E-01,0.0179809
2.14E+03,8.09E-01,8.42E-01,9.60E-01,0.0175481
2.14E+03,7.36E-01,7.67E-01,9.59E-01,0.0180419
2.15E+03,6.70E-01,7.00E-01,9.57E-01,0.0191087
2.15E+03,6.08E-01,6.33E-01,9.60E-01,0.0176281
2.16E+03,5.23E-01,5.44E-01,9.61E-01,0.0174496
2.16E+03,4.39E-01,4.57E-01,9.60E-01,0.0178262
2.16E+03,4.80E-01,4.99E-01,9.61E-01,0.017068
2.17E+03,5.43E-01,5.63E-01,9.64E-01,0.0159281
2.17E+03,5.96E-01,6.20E-01,9.62E-01,0.016845
2.17E+03,6.25E-01,6.51E-01,9.60E-01,0.0178288
2.18E+03,6.30E-01,6.53E-01,9.64E-01,0.0160026
2.18E+03,6.45E-01,6.68E-01,9.66E-01,0.0151687
2.18E+03,6.53E-01,6.77E-01,9.64E-01,0.0159276
2.19E+03,6.85E-01,7.13E-01,9.61E-01,0.0171494
2.19E+03,7.27E-01,7.53E-01,9.65E-01,0.0154319
2.19E+03,7.62E-01,7.89E-01,9.66E-01,0.015173
2.20E+03,7.91E-01,8.22E-01,9.62E-01,0.0168534
2.20E+03,8.19E-01,8.50E-01,9.63E-01,0.0163872
2.20E+03,8.49E-01,8.77E-01,9.68E-01,0.0140089
2.21E+03,8.74E-01,9.05E-01,9.66E-01,0.0150134
2.21E+03,8.98E-01,9.32E-01,9.64E-01,0.01602444
2.21E+03,9.26E-01,9.59E-01,9.65E-01,0.0156234
2.22E+03,9.56E-01,9.89E-01,9.66E-01,0.014953
2.22E+03,9.85E-01,1.02E+00,9.63E-01,0.01617511
2.22E+03,1.02E+00,1.06E+00,9.63E-01,0.0161658
2.23E+03,1.06E+00,1.09E+00,9.66E-01,0.0152026
2.23E+03,1.09E+00,1.13E+00,9.64E-01,0.0158436
2.23E+03,1.14E+00,1.18E+00,9.66E-01,0.0152413
2.24E+03,1.18E+00,1.22E+00,9.67E-01,0.0145543
2.24E+03,1.23E+00,1.27E+00,9.68E-01,0.0142107
2.24E+03,1.28E+00,1.32E+00,9.66E-01,0.01510564
2.25E+03,1.32E+00,1.37E+00,9.68E-01,0.0142381
2.25E+03,1.37E+00,1.42E+00,9.67E-01,0.0145041
2.25E+03,1.41E+00,1.46E+00,9.68E-01,0.0142474
2.26E+03,1.46E+00,1.51E+00,9.69E-01,0.0138764
2.26E+03,1.53E+00,1.58E+00,9.68E-01,0.0142233
2.26E+03,1.60E+00,1.65E+00,9.69E-01,0.0134709
2.27E+03,1.66E+00,1.71E+00,9.69E-01,0.0134548
2.27E+03,1.75E+00,1.80E+00,9.69E-01,0.0138227
2.27E+03,1.85E+00,1.90E+00,9.70E-01,0.0130077
2.28E+03,1.95E+00,2.01E+00,9.69E-01,0.0134613
2.28E+03,2.09E+00,2.15E+00,9.70E-01,0.0134196
2.28E+03,2.25E+00,2.32E+00,9.70E-01,0.01308182
2.29E+03,2.44E+00,2.52E+00,9.71E-01,0.01298262
2.29E+03,2.63E+00,2.71E+00,9.71E-01,0.0127542
2.29E+03,2.80E+00,2.88E+00,9.72E-01,0.0123975
2.30E+03,2.94E+00,3.03E+00,9.72E-01,0.0122512
2.30E+03,3.07E+00,3.15E+00,9.73E-01,0.0120816
2.30E+03,3.18E+00,3.27E+00,9.74E-01,0.011374
2.31E+03,3.28E+00,3.36E+00,9.74E-01,0.011384
2.31E+03,3.36E+00,3.44E+00,9.75E-01,0.0108746
2.31E+03,3.44E+00,3.52E+00,9.76E-01,0.0103821
2.32E+03,3.52E+00,3.60E+00,9.77E-01,0.010072
2.32E+03,3.62E+00,3.70E+00,9.78E-01,0.009493494
2.32E+03,3.89E+00,3.97E+00,9.79E-01,0.009235637
2.33E+03,4.05E+00,4.13E+00,9.81E-01,0.008455951
2.33E+03,3.93E+00,4.01E+00,9.82E-01,0.007931665
2.33E+03,3.87E+00,3.94E+00,9.83E-01,0.007387863
2.34E+03,3.82E+00,3.88E+00,9.83E-01,0.007398393
2.34E+03,3.80E+00,3.86E+00,9.84E-01,0.006809201
2.34E+03,3.93E+00,3.99E+00,9.85E-01,0.00674984
2.35E+03,4.36E+00,4.44E+00,9.81E-01,0.008396078
2.35E+03,4.24E+00,4.32E+00,9.82E-01,0.00796375
2.35E+03,3.66E+00,3.72E+00,9.85E-01,0.006357971
2.36E+03,3.35E+00,3.40E+00,9.87E-01,0.005552943
2.36E+03,3.22E+00,3.26E+00,9.88E-01,0.00524661
2.36E+03,3.20E+00,3.23E+00,9.88E-01,0.005090419
2.37E+03,3.26E+00,3.30E+00,9.88E-01,0.005230562
2.37E+03,3.41E+00,3.46E+00,9.86E-01,0.006073838
2.37E+03,3.64E+00,3.69E+00,9.85E-01,0.00670902
2.38E+03,3.85E+00,3.92E+00,9.83E-01,0.007499647
2.38E+03,3.98E+00,4.05E+00,9.81E-01,0.008290997
2.38E+03,3.98E+00,4.06E+00,9.80E-01,0.008835978
2.39E+03,3.92E+00,3.99E+00,9.80E-01,0.008637207
2.39E+03,3.83E+00,3.91E+00,9.80E-01,0.008830953
2.39E+03,3.74E+00,3.82E+00,9.80E-01,0.008948035
2.40E+03,3.66E+00,3.73E+00,9.81E-01,0.008529399
2.40E+03,3.57E+00,3.64E+00,9.80E-01,0.008798037
2.40E+03,3.49E+00,3.56E+00,9.81E-01,0.008361098
2.41E+03,3.43E+00,3.49E+00,9.81E-01,0.008372262
2.41E+03,3.39E+00,3.45E+00,9.81E-01,0.008239387
2.41E+03,3.34E+00,3.41E+00,9.80E-01,0.008568538
2.42E+03,3.30E+00,3.36E+00,9.82E-01,0.008094198
2.42E+03,3.26E+00,3.32E+00,9.82E-01,0.008033129
2.43E+03,3.22E+00,3.28E+00,9.82E-01,0.007927483
2.43E+03,3.19E+00,3.25E+00,9.83E-01,0.00743164
2.43E+03,3.17E+00,3.23E+00,9.82E-01,0.007800366
2.44E+03,3.15E+00,3.20E+00,9.82E-01,0.007797423
2.44E+03,3.14E+00,3.19E+00,9.83E-01,0.00766301
2.44E+03,3.13E+00,3.18E+00,9.83E-01,0.007348478
2.45E+03,3.13E+00,3.18E+00,9.84E-01,0.007154407
2.45E+03,3.13E+00,3.19E+00,9.83E-01,0.007320553
2.45E+03,3.15E+00,3.20E+00,9.83E-01,0.007350118
2.46E+03,3.17E+00,3.22E+00,9.83E-01,0.007335019
2.46E+03,3.18E+00,3.23E+00,9.83E-01,0.007543297
2.46E+03,3.18E+00,3.23E+00,9.83E-01,0.007228863
2.47E+03,3.17E+00,3.22E+00,9.83E-01,0.007233324
2.47E+03,3.16E+00,3.21E+00,9.84E-01,0.007041955
2.47E+03,3.15E+00,3.20E+00,9.84E-01,0.006918146
2.48E+03,3.13E+00,3.18E+00,9.84E-01,0.007114986
2.48E+03,3.12E+00,3.17E+00,9.84E-01,0.006921162
2.48E+03,3.11E+00,3.16E+00,9.84E-01,0.006877016
2.49E+03,3.10E+00,3.15E+00,9.84E-01,0.006874582
2.49E+03,3.09E+00,3.14E+00,9.85E-01,0.006407889
2.49E+03,3.09E+00,3.14E+00,9.85E-01,0.0067618
2.50E+03,3.09E+00,3.13E+00,9.85E-01,0.006537914
2.50E+03,3.08E+00,3.13E+00,9.85E-01,0.006374806
2.50E+03,3.08E+00,3.13E+00,9.85E-01,0.006616262
2.51E+03,3.07E+00,3.12E+00,9.85E-01,0.006668783
2.51E+03,3.07E+00,3.12E+00,9.85E-01,0.006558104
2.51E+03,3.07E+00,3.11E+00,9.86E-01,0.006222681
2.52E+03,3.07E+00,3.11E+00,9.86E-01,0.006324531
2.52E+03,3.07E+00,3.11E+00,9.86E-01,0.006165788
2.52E+03,3.07E+00,3.12E+00,9.86E-01,0.00626832
2.53E+03,3.07E+00,3.12E+00,9.85E-01,0.006366565
2.53E+03,3.08E+00,3.12E+00,9.86E-01,0.006166017
2.53E+03,3.09E+00,3.13E+00,9.85E-01,0.006637106
2.54E+03,3.10E+00,3.14E+00,9.86E-01,0.006232828
2.54E+03,3.11E+00,3.15E+00,9.86E-01,0.005934069
2.54E+03,3.12E+00,3.17E+00,9.86E-01,0.006052056
2.55E+03,3.14E+00,3.18E+00,9.86E-01,0.006089325
2.55E+03,3.16E+00,3.20E+00,9.86E-01,0.006062106
2.55E+03,3.18E+00,3.22E+00,9.87E-01,0.005866878
2.56E+03,3.21E+00,3.25E+00,9.87E-01,0.005764592
2.56E+03,3.24E+00,3.28E+00,9.87E-01,0.005805897
2.56E+03,3.27E+00,3.31E+00,9.86E-01,0.005966131
2.57E+03,3.30E+00,3.35E+00,9.86E-01,0.006028689
2.57E+03,3.34E+00,3.39E+00,9.86E-01,0.005909446
2.57E+03,3.39E+00,3.43E+00,9.86E-01,0.005941144
2.58E+03,3.44E+00,3.48E+00,9.87E-01,0.005588964
2.58E+03,3.49E+00,3.53E+00,9.87E-01,0.005688036
2.58E+03,3.55E+00,3.59E+00,9.87E-01,0.005630661
2.59E+03,3.61E+00,3.66E+00,9.87E-01,0.005731093
2.59E+03,3.68E+00,3.73E+00,9.87E-01,0.005839585
2.59E+03,3.76E+00,3.81E+00,9.87E-01,0.005799316
2.60E+03,3.84E+00,3.89E+00,9.87E-01,0.005895213
2.60E+03,3.93E+00,3.98E+00,9.87E-01,0.005729787
2.60E+03,4.02E+00,4.08E+00,9.86E-01,0.005913861
2.61E+03,4.13E+00,4.18E+00,9.87E-01,0.00549715
2.61E+03,4.24E+00,4.30E+00,9.87E-01,0.005538484
2.61E+03,4.37E+00,4.42E+00,9.87E-01,0.005679652
2.62E+03,4.50E+00,4.56E+00,9.87E-01,0.00574646
2.62E+03,4.64E+00,4.70E+00,9.87E-01,0.005761924
2.62E+03,4.79E+00,4.86E+00,9.87E-01,0.005761348
2.63E+03,4.96E+00,5.02E+00,9.87E-01,0.005900217
2.63E+03,5.13E+00,5.20E+00,9.86E-01,0.005924425
2.63E+03,5.31E+00,5.38E+00,9.87E-01,0.005786824
2.64E+03,5.50E+00,5.58E+00,9.86E-01,0.006067802
2.64E+03,5.71E+00,5.79E+00,9.86E-01,0.005956052
2.64E+03,5.92E+00,6.00E+00,9.86E-01,0.005997891
2.65E+03,6.13E+00,6.22E+00,9.87E-01,0.005899307
2.65E+03,6.35E+00,6.43E+00,9.87E-01,0.005873781
2.65E+03,6.55E+00,6.64E+00,9.87E-01,0.00578289
2.66E+03,6.74E+00,6.83E+00,9.87E-01,0.005802456
2.66E+03,6.88E+00,6.98E+00,9.86E-01,0.005971084
2.66E+03,6.96E+00,7.05E+00,9.87E-01,0.005856873
2.67E+03,6.97E+00,7.06E+00,9.86E-01,0.005920322
2.67E+03,6.96E+00,7.06E+00,9.86E-01,0.00615536
2.67E+03,6.95E+00,7.05E+00,9.86E-01,0.006165868
2.68E+03,6.94E+00,7.04E+00,9.86E-01,0.006179976
2.68E+03,6.93E+00,7.03E+00,9.86E-01,0.006190724
2.68E+03,6.91E+00,7.01E+00,9.86E-01,0.006187523
2.69E+03,6.90E+00,7.00E+00,9.86E-01,0.006326192
2.69E+03,6.88E+00,6.99E+00,9.85E-01,0.006443682
2.70E+03,6.87E+00,6.97E+00,9.85E-01,0.006522609
2.70E+03,6.85E+00,6.95E+00,9.85E-01,0.006458183
2.70E+03,6.84E+00,6.94E+00,9.85E-01,0.00637119
2.71E+03,6.82E+00,6.92E+00,9.85E-01,0.006436497
2.71E+03,6.81E+00,6.91E+00,9.85E-01,0.006565118
2.71E+03,6.79E+00,6.89E+00,9.85E-01,0.006513517
2.72E+03,6.78E+00,6.88E+00,9.85E-01,0.006633517
2.72E+03,6.76E+00,6.87E+00,9.85E-01,0.006750635
2.72E+03,6.75E+00,6.85E+00,9.85E-01,0.006710706
2.73E+03,6.73E+00,6.84E+00,9.85E-01,0.006774665
2.73E+03,6.71E+00,6.82E+00,9.84E-01,0.006946952
2.73E+03,6.70E+00,6.81E+00,9.84E-01,0.006903861
2.74E+03,6.68E+00,6.79E+00,9.84E-01,0.007114076
2.74E+03,6.67E+00,6.78E+00,9.83E-01,0.007230649
2.74E+03,6.65E+00,6.76E+00,9.84E-01,0.007191639
2.75E+03,6.63E+00,6.75E+00,9.83E-01,0.007385481
2.75E+03,6.62E+00,6.73E+00,9.83E-01,0.007509998
2.75E+03,6.60E+00,6.72E+00,9.83E-01,0.007599253
2.76E+03,6.58E+00,6.70E+00,9.83E-01,0.007649336
2.76E+03,6.56E+00,6.68E+00,9.82E-01,0.007951061
2.76E+03,6.55E+00,6.67E+00,9.82E-01,0.008086765
2.77E+03,6.53E+00,6.65E+00,9.82E-01,0.008071247
2.77E+03,6.51E+00,6.64E+00,9.81E-01,0.008198864
2.77E+03,6.49E+00,6.62E+00,9.81E-01,0.008427261
2.78E+03,6.47E+00,6.60E+00,9.81E-01,0.008412975
2.78E+03,6.46E+00,6.59E+00,9.80E-01,0.008692224
2.78E+03,6.44E+00,6.57E+00,9.80E-01,0.008832506
2.79E+03,6.42E+00,6.55E+00,9.80E-01,0.00893491
2.79E+03,6.40E+00,6.53E+00,9.80E-01,0.008991668
2.79E+03,6.38E+00,6.52E+00,9.79E-01,0.009292946
2.80E+03,6.36E+00,6.50E+00,9.79E-01,0.009414707
2.80E+03,6.34E+00,6.48E+00,9.78E-01,0.009686232
2.80E+03,6.32E+00,6.46E+00,9.78E-01,0.009768727
2.81E+03,6.30E+00,6.44E+00,9.77E-01,0.0100616
2.81E+03,6.28E+00,6.43E+00,9.77E-01,0.0101522
2.81E+03,6.26E+00,6.41E+00,9.76E-01,0.010455
2.82E+03,6.24E+00,6.39E+00,9.76E-01,0.0106387
2.82E+03,6.21E+00,6.37E+00,9.75E-01,0.0108474
2.82E+03,6.19E+00,6.35E+00,9.75E-01,0.0110647
2.83E+03,6.17E+00,6.33E+00,9.74E-01,0.0114284
2.83E+03,6.15E+00,6.31E+00,9.73E-01,0.0117642
2.83E+03,6.12E+00,6.29E+00,9.73E-01,0.0120076
2.84E+03,6.10E+00,6.27E+00,9.72E-01,0.0122292
2.84E+03,6.06E+00,6.24E+00,9.71E-01,0.0127525
2.84E+03,6.02E+00,6.21E+00,9.70E-01,0.0131502
2.85E+03,5.97E+00,6.17E+00,9.69E-01,0.0138117
2.85E+03,5.93E+00,6.13E+00,9.67E-01,0.0144105
2.85E+03,5.90E+00,6.10E+00,9.67E-01,0.0146289
2.86E+03,5.88E+00,6.08E+00,9.66E-01,0.0148149
2.86E+03,5.87E+00,6.08E+00,9.66E-01,0.0149147
2.86E+03,5.86E+00,6.07E+00,9.66E-01,0.015175
2.87E+03,5.84E+00,6.05E+00,9.65E-01,0.0155746
2.87E+03,5.82E+00,6.03E+00,9.64E-01,0.0157879
2.87E+03,5.80E+00,6.02E+00,9.63E-01,0.0162353
2.88E+03,5.78E+00,6.00E+00,9.62E-01,0.0167388
2.88E+03,5.76E+00,5.99E+00,9.61E-01,0.01709445
2.88E+03,5.74E+00,5.97E+00,9.60E-01,0.01766346
2.89E+03,5.71E+00,5.95E+00,9.59E-01,0.01813891
2.89E+03,5.68E+00,5.93E+00,9.58E-01,0.0186217
2.89E+03,5.65E+00,5.90E+00,9.57E-01,0.0192451
2.90E+03,5.61E+00,5.87E+00,9.55E-01,0.0199571
2.90E+03,5.58E+00,5.84E+00,9.54E-01,0.0203511
2.90E+03,5.54E+00,5.81E+00,9.53E-01,0.0210361
2.91E+03,5.50E+00,5.78E+00,9.51E-01,0.0218689
2.91E+03,5.46E+00,5.75E+00,9.49E-01,0.0227375
2.91E+03,5.41E+00,5.71E+00,9.47E-01,0.0235185
2.92E+03,5.35E+00,5.66E+00,9.45E-01,0.0244814
2.92E+03,5.30E+00,5.62E+00,9.43E-01,0.0253964
2.92E+03,5.27E+00,5.59E+00,9.42E-01,0.0258763
2.93E+03,5.24E+00,5.57E+00,9.40E-01,0.0266958
2.93E+03,5.23E+00,5.57E+00,9.39E-01,0.0272204
2.93E+03,5.22E+00,5.57E+00,9.38E-01,0.0279021
2.94E+03,5.21E+00,5.56E+00,9.37E-01,0.0284249
2.94E+03,5.21E+00,5.57E+00,9.35E-01,0.0291236
2.94E+03,5.19E+00,5.56E+00,9.33E-01,0.0299984
2.95E+03,5.16E+00,5.54E+00,9.31E-01,0.0309749
2.95E+03,5.13E+00,5.52E+00,9.29E-01,0.0318081
2.95E+03,5.09E+00,5.49E+00,9.26E-01,0.0331893
2.96E+03,5.05E+00,5.46E+00,9.25E-01,0.0340798
2.96E+03,5.02E+00,5.44E+00,9.22E-01,0.0351109
2.97E+03,5.00E+00,5.43E+00,9.20E-01,0.0361112
2.97E+03,4.99E+00,5.44E+00,9.18E-01,0.0371029
2.97E+03,4.99E+00,5.44E+00,9.16E-01,0.0380663
2.98E+03,4.98E+00,5.45E+00,9.14E-01,0.03915646
2.98E+03,4.96E+00,5.44E+00,9.11E-01,0.04034686
2.98E+03,4.94E+00,5.44E+00,9.08E-01,0.0416831
2.99E+03,4.92E+00,5.43E+00,9.06E-01,0.042925
2.99E+03,4.89E+00,5.41E+00,9.03E-01,0.0444682
2.99E+03,4.86E+00,5.40E+00,9.00E-01,0.045889
3.00E+03,4.83E+00,5.39E+00,8.97E-01,0.0472565
3.00E+03,4.80E+00,5.37E+00,8.93E-01,0.049049
3.00E+03,4.77E+00,5.35E+00,8.90E-01,0.0505707
3.01E+03,4.73E+00,5.34E+00,8.86E-01,0.0523798
3.01E+03,4.69E+00,5.32E+00,8.83E-01,0.0541392
3.01E+03,4.65E+00,5.29E+00,8.79E-01,0.0558724
3.02E+03,4.61E+00,5.27E+00,8.75E-01,0.05782748
3.02E+03,4.58E+00,5.26E+00,8.71E-01,0.0598132
3.02E+03,4.55E+00,5.25E+00,8.67E-01,0.0617831
3.03E+03,4.52E+00,5.23E+00,8.63E-01,0.0639008
3.03E+03,4.48E+00,5.21E+00,8.59E-01,0.0661823
3.03E+03,4.44E+00,5.19E+00,8.54E-01,0.0683263
3.04E+03,4.40E+00,5.18E+00,8.50E-01,0.0705298
3.04E+03,4.37E+00,5.17E+00,8.45E-01,0.0729784
3.04E+03,4.33E+00,5.15E+00,8.40E-01,0.0754799
3.05E+03,4.29E+00,5.13E+00,8.36E-01,0.0779102
3.05E+03,4.25E+00,5.11E+00,8.31E-01,0.08055383
3.05E+03,4.21E+00,5.10E+00,8.25E-01,0.0832935
3.06E+03,4.16E+00,5.08E+00,8.20E-01,0.0862237
3.06E+03,4.13E+00,5.07E+00,8.14E-01,0.0891606
3.06E+03,4.08E+00,5.05E+00,8.09E-01,0.0923148
3.07E+03,4.04E+00,5.03E+00,8.03E-01,0.0954198
3.07E+03,4.00E+00,5.02E+00,7.97E-01,0.09836089
3.07E+03,3.96E+00,5.01E+00,7.91E-01,0.101551
3.08E+03,3.92E+00,4.99E+00,7.85E-01,0.104928
3.08E+03,3.87E+00,4.97E+00,7.78E-01,0.108742
3.08E+03,3.83E+00,4.96E+00,7.72E-01,0.112222
3.09E+03,3.79E+00,4.94E+00,7.66E-01,0.116016
3.09E+03,3.74E+00,4.94E+00,7.59E-01,0.119934
3.09E+03,3.70E+00,4.92E+00,7.52E-01,0.123819
3.10E+03,3.65E+00,4.90E+00,7.45E-01,0.127804
3.10E+03,3.61E+00,4.88E+00,7.38E-01,0.131806
3.10E+03,3.56E+00,4.87E+00,7.31E-01,0.136106
3.11E+03,3.52E+00,4.86E+00,7.23E-01,0.14057
3.11E+03,3.47E+00,4.85E+00,7.16E-01,0.145081
3.11E+03,3.42E+00,4.82E+00,7.09E-01,0.149461
3.12E+03,3.37E+00,4.81E+00,7.01E-01,0.154005
3.12E+03,3.32E+00,4.79E+00,6.94E-01,0.158852
3.12E+03,3.27E+00,4.77E+00,6.86E-01,0.163801
3.13E+03,3.23E+00,4.76E+00,6.78E-01,0.168701
3.13E+03,3.18E+00,4.75E+00,6.70E-01,0.173748
3.13E+03,3.14E+00,4.73E+00,6.62E-01,0.178832
3.14E+03,3.09E+00,4.72E+00,6.55E-01,0.183923
3.14E+03,3.05E+00,4.70E+00,6.47E-01,0.188864
3.14E+03,3.00E+00,4.69E+00,6.39E-01,0.194456
3.15E+03,2.95E+00,4.68E+00,6.31E-01,0.199632
3.15E+03,2.91E+00,4.66E+00,6.24E-01,0.205095
3.15E+03,2.86E+00,4.65E+00,6.16E-01,0.210522
3.16E+03,2.82E+00,4.63E+00,6.08E-01,0.215817
3.16E+03,2.78E+00,4.62E+00,6.01E-01,0.221094
3.16E+03,2.73E+00,4.60E+00,5.93E-01,0.226634
3.17E+03,2.69E+00,4.59E+00,5.86E-01,0.232118
3.17E+03,2.65E+00,4.58E+00,5.79E-01,0.237609
3.17E+03,2.61E+00,4.56E+00,5.72E-01,0.242865
3.18E+03,2.57E+00,4.54E+00,5.65E-01,0.248087
3.18E+03,2.53E+00,4.54E+00,5.58E-01,0.253036
3.18E+03,2.49E+00,4.52E+00,5.52E-01,0.258418
3.19E+03,2.46E+00,4.52E+00,5.46E-01,0.263111
3.19E+03,2.43E+00,4.50E+00,5.40E-01,0.267941
3.19E+03,2.40E+00,4.49E+00,5.34E-01,0.272553
3.20E+03,2.37E+00,4.48E+00,5.28E-01,0.277132
3.20E+03,2.34E+00,4.48E+00,5.23E-01,0.281429
3.20E+03,2.31E+00,4.47E+00,5.18E-01,0.285977
3.21E+03,2.29E+00,4.46E+00,5.13E-01,0.28981
3.21E+03,2.27E+00,4.46E+00,5.09E-01,0.293681
3.21E+03,2.24E+00,4.45E+00,5.05E-01,0.297024
3.22E+03,2.22E+00,4.45E+00,5.00E-01,0.300616
3.22E+03,2.21E+00,4.44E+00,4.97E-01,0.303672
3.22E+03,2.19E+00,4.44E+00,4.94E-01,0.306237
3.23E+03,2.18E+00,4.44E+00,4.91E-01,0.308848
3.23E+03,2.17E+00,4.44E+00,4.88E-01,0.311428
3.24E+03,2.15E+00,4.43E+00,4.86E-01,0.313714
3.24E+03,2.14E+00,4.43E+00,4.83E-01,0.315791
3.24E+03,2.13E+00,4.44E+00,4.81E-01,0.3179
3.25E+03,2.12E+00,4.43E+00,4.79E-01,0.319443
3.25E+03,2.12E+00,4.44E+00,4.77E-01,0.321269
3.25E+03,2.11E+00,4.44E+00,4.76E-01,0.322228
3.26E+03,2.11E+00,4.44E+00,4.75E-01,0.32302
3.26E+03,2.11E+00,4.45E+00,4.74E-01,0.324584
3.26E+03,2.10E+00,4.46E+00,4.72E-01,0.325713
3.27E+03,2.10E+00,4.46E+00,4.71E-01,0.326583
3.27E+03,2.10E+00,4.47E+00,4.70E-01,0.32751
3.27E+03,2.10E+00,4.47E+00,4.69E-01,0.328619
3.28E+03,2.10E+00,4.48E+00,4.68E-01,0.329534
3.28E+03,2.10E+00,4.49E+00,4.68E-01,0.330084
3.28E+03,2.10E+00,4.50E+00,4.67E-01,0.330864
3.29E+03,2.10E+00,4.51E+00,4.66E-01,0.332069
3.29E+03,2.10E+00,4.51E+00,4.65E-01,0.332618
3.29E+03,2.09E+00,4.51E+00,4.64E-01,0.333587
3.30E+03,2.09E+00,4.52E+00,4.63E-01,0.33462
3.30E+03,2.09E+00,4.53E+00,4.62E-01,0.335556
3.30E+03,2.09E+00,4.54E+00,4.61E-01,0.336765
3.31E+03,2.09E+00,4.54E+00,4.60E-01,0.337333
3.31E+03,2.08E+00,4.54E+00,4.59E-01,0.338265
3.31E+03,2.08E+00,4.55E+00,4.58E-01,0.338953
3.32E+03,2.08E+00,4.55E+00,4.58E-01,0.339601
3.32E+03,2.08E+00,4.55E+00,4.57E-01,0.340446
3.32E+03,2.07E+00,4.56E+00,4.55E-01,0.341811
3.33E+03,2.07E+00,4.56E+00,4.54E-01,0.342482
3.33E+03,2.07E+00,4.56E+00,4.54E-01,0.34311
3.33E+03,2.07E+00,4.56E+00,4.53E-01,0.343525
3.34E+03,2.06E+00,4.56E+00,4.53E-01,0.34427
3.34E+03,2.06E+00,4.56E+00,4.52E-01,0.344753
3.34E+03,2.06E+00,4.56E+00,4.52E-01,0.344997
3.35E+03,2.06E+00,4.56E+00,4.52E-01,0.345167
3.35E+03,2.06E+00,4.56E+00,4.52E-01,0.344934
3.35E+03,2.06E+00,4.56E+00,4.52E-01,0.344612
3.36E+03,2.06E+00,4.55E+00,4.52E-01,0.344384
3.36E+03,2.06E+00,4.55E+00,4.53E-01,0.343804
3.36E+03,2.06E+00,4.54E+00,4.54E-01,0.342972
3.37E+03,2.07E+00,4.54E+00,4.55E-01,0.341904
3.37E+03,2.07E+00,4.54E+00,4.56E-01,0.340638
3.37E+03,2.08E+00,4.54E+00,4.58E-01,0.338864
3.38E+03,2.08E+00,4.53E+00,4.60E-01,0.336955
3.38E+03,2.09E+00,4.52E+00,4.62E-01,0.335308
3.38E+03,2.09E+00,4.51E+00,4.64E-01,0.333243
3.39E+03,2.10E+00,4.51E+00,4.67E-01,0.330822
3.39E+03,2.11E+00,4.50E+00,4.70E-01,0.328177
3.39E+03,2.12E+00,4.49E+00,4.73E-01,0.325365
3.40E+03,2.13E+00,4.48E+00,4.76E-01,0.32219
3.40E+03,2.15E+00,4.47E+00,4.80E-01,0.319024
3.40E+03,2.16E+00,4.47E+00,4.83E-01,0.316042
3.41E+03,2.17E+00,4.46E+00,4.87E-01,0.312591
3.41E+03,2.19E+00,4.45E+00,4.91E-01,0.308634
3.41E+03,2.20E+00,4.44E+00,4.96E-01,0.304562
3.42E+03,2.21E+00,4.42E+00,5.00E-01,0.300931
3.42E+03,2.22E+00,4.40E+00,5.05E-01,0.296996
3.42E+03,2.24E+00,4.40E+00,5.10E-01,0.292747
3.43E+03,2.26E+00,4.39E+00,5.15E-01,0.288576
3.43E+03,2.28E+00,4.38E+00,5.19E-01,0.284484
3.43E+03,2.29E+00,4.37E+00,5.24E-01,0.280341
3.44E+03,2.31E+00,4.36E+00,5.30E-01,0.275818
3.44E+03,2.33E+00,4.35E+00,5.36E-01,0.271225
3.44E+03,2.34E+00,4.33E+00,5.41E-01,0.267054
3.45E+03,2.35E+00,4.31E+00,5.46E-01,0.262556
3.45E+03,2.39E+00,4.33E+00,5.52E-01,0.258113
3.45E+03,2.41E+00,4.32E+00,5.58E-01,0.253714
3.46E+03,2.43E+00,4.31E+00,5.63E-01,0.249293
3.46E+03,2.44E+00,4.29E+00,5.69E-01,0.245016
3.46E+03,2.46E+00,4.29E+00,5.75E-01,0.240579
3.47E+03,2.48E+00,4.28E+00,5.80E-01,0.23641
3.47E+03,2.50E+00,4.27E+00,5.86E-01,0.232177
3.47E+03,2.52E+00,4.26E+00,5.92E-01,0.227573
3.48E+03,2.54E+00,4.25E+00,5.98E-01,0.22329
3.48E+03,2.55E+00,4.23E+00,6.04E-01,0.219269
3.48E+03,2.58E+00,4.23E+00,6.10E-01,0.214335
3.49E+03,2.60E+00,4.22E+00,6.16E-01,0.210114
3.49E+03,2.63E+00,4.22E+00,6.22E-01,0.206384
3.49E+03,2.64E+00,4.21E+00,6.28E-01,0.202036
3.50E+03,2.66E+00,4.20E+00,6.34E-01,0.197856
3.50E+03,2.67E+00,4.17E+00,6.40E-01,0.19361
3.51E+03,2.70E+00,4.17E+00,6.47E-01,0.1892779
3.51E+03,2.71E+00,4.16E+00,6.52E-01,0.185545
3.51E+03,2.74E+00,4.17E+00,6.59E-01,0.181293
3.52E+03,2.77E+00,4.17E+00,6.65E-01,0.1772
3.52E+03,2.79E+00,4.16E+00,6.71E-01,0.173136
3.52E+03,2.79E+00,4.12E+00,6.77E-01,0.169576
3.53E+03,2.80E+00,4.10E+00,6.83E-01,0.165378
3.53E+03,2.82E+00,4.09E+00,6.90E-01,0.161288
3.53E+03,2.86E+00,4.12E+00,6.96E-01,0.157541
3.54E+03,2.87E+00,4.09E+00,7.02E-01,0.153747
3.54E+03,2.90E+00,4.10E+00,7.08E-01,0.150044
3.54E+03,2.91E+00,4.07E+00,7.14E-01,0.14609
3.55E+03,2.87E+00,3.99E+00,7.20E-01,0.1423677
3.55E+03,2.92E+00,4.02E+00,7.26E-01,0.138844
3.55E+03,2.93E+00,4.00E+00,7.32E-01,0.135311
3.56E+03,2.97E+00,4.02E+00,7.38E-01,0.131819
3.56E+03,2.97E+00,3.99E+00,7.44E-01,0.128205
3.56E+03,2.96E+00,3.94E+00,7.50E-01,0.124735
3.57E+03,2.85E+00,3.78E+00,7.56E-01,0.121426
3.57E+03,2.91E+00,3.82E+00,7.63E-01,0.117697
3.57E+03,3.01E+00,3.92E+00,7.68E-01,0.11471
3.58E+03,3.01E+00,3.89E+00,7.74E-01,0.11149
3.58E+03,3.02E+00,3.87E+00,7.80E-01,0.108143
3.58E+03,3.02E+00,3.84E+00,7.86E-01,0.104742
3.59E+03,2.89E+00,3.66E+00,7.91E-01,0.101942
3.59E+03,2.92E+00,3.67E+00,7.96E-01,0.0989508
3.59E+03,3.00E+00,3.74E+00,8.02E-01,0.0958182
3.60E+03,2.99E+00,3.70E+00,8.08E-01,0.092615
3.60E+03,3.02E+00,3.71E+00,8.14E-01,0.0895149
3.60E+03,3.06E+00,3.73E+00,8.19E-01,0.0867014
3.61E+03,3.00E+00,3.64E+00,8.24E-01,0.0839716
3.61E+03,2.93E+00,3.54E+00,8.30E-01,0.08099203
3.61E+03,2.98E+00,3.56E+00,8.35E-01,0.07834145
3.62E+03,3.01E+00,3.58E+00,8.41E-01,0.0754166
3.62E+03,2.94E+00,3.47E+00,8.46E-01,0.0725508
3.62E+03,3.12E+00,3.66E+00,8.53E-01,0.0692405
3.63E+03,2.97E+00,3.46E+00,8.58E-01,0.0663655
3.63E+03,2.83E+00,3.28E+00,8.64E-01,0.0634902
3.63E+03,3.13E+00,3.59E+00,8.70E-01,0.0604861
3.64E+03,3.20E+00,3.65E+00,8.76E-01,0.057429
3.64E+03,3.22E+00,3.66E+00,8.82E-01,0.054577
3.64E+03,3.23E+00,3.63E+00,8.89E-01,0.0510713
3.65E+03,2.99E+00,3.34E+00,8.95E-01,0.0483703
3.65E+03,2.88E+00,3.20E+00,9.01E-01,0.0450624
3.65E+03,3.22E+00,3.55E+00,9.08E-01,0.04175714
3.66E+03,3.18E+00,3.47E+00,9.15E-01,0.0385731
3.66E+03,3.36E+00,3.65E+00,9.21E-01,0.0356098
3.66E+03,3.39E+00,3.66E+00,9.28E-01,0.0325843
3.67E+03,3.30E+00,3.53E+00,9.34E-01,0.0297475
3.67E+03,3.05E+00,3.25E+00,9.39E-01,0.0272445
3.67E+03,3.09E+00,3.27E+00,9.45E-01,0.0246673
3.68E+03,3.14E+00,3.31E+00,9.50E-01,0.0223782
3.68E+03,3.43E+00,3.59E+00,9.55E-01,0.0201502
3.68E+03,3.49E+00,3.64E+00,9.59E-01,0.0183478
3.69E+03,3.20E+00,3.33E+00,9.62E-01,0.0166966
3.69E+03,3.24E+00,3.35E+00,9.66E-01,0.015156
3.69E+03,3.50E+00,3.62E+00,9.69E-01,0.01370848
3.70E+03,3.54E+00,3.65E+00,9.71E-01,0.0125788
3.70E+03,3.45E+00,3.54E+00,9.74E-01,0.0115346
3.70E+03,3.54E+00,3.63E+00,9.76E-01,0.0107271
3.71E+03,3.50E+00,3.58E+00,9.77E-01,0.009923661
3.71E+03,3.27E+00,3.35E+00,9.79E-01,0.009370969
3.71E+03,3.52E+00,3.59E+00,9.79E-01,0.009012595
3.72E+03,3.62E+00,3.69E+00,9.81E-01,0.008349792
3.72E+03,3.55E+00,3.61E+00,9.82E-01,0.007846137
3.72E+03,3.53E+00,3.59E+00,9.83E-01,0.007514493
3.73E+03,3.59E+00,3.65E+00,9.84E-01,0.007074797
3.73E+03,3.45E+00,3.51E+00,9.83E-01,0.007227004
3.73E+03,3.31E+00,3.37E+00,9.83E-01,0.007363959
3.74E+03,3.51E+00,3.56E+00,9.85E-01,0.006573492
3.74E+03,3.61E+00,3.66E+00,9.86E-01,0.006260567
3.74E+03,3.13E+00,3.18E+00,9.85E-01,0.006386496
3.75E+03,3.41E+00,3.46E+00,9.86E-01,0.006137565
3.75E+03,3.27E+00,3.32E+00,9.86E-01,0.006029834
3.75E+03,3.75E+00,3.80E+00,9.87E-01,0.005644705
3.76E+03,3.77E+00,3.82E+00,9.87E-01,0.005553431
3.76E+03,3.88E+00,3.93E+00,9.88E-01,0.005410495
3.76E+03,3.87E+00,3.92E+00,9.88E-01,0.005161376
3.77E+03,3.85E+00,3.90E+00,9.88E-01,0.005245221
3.77E+03,3.94E+00,3.99E+00,9.88E-01,0.005294331
3.78E+03,4.06E+00,4.11E+00,9.89E-01,0.004929217
3.78E+03,3.96E+00,4.01E+00,9.88E-01,0.005069115
3.78E+03,4.05E+00,4.10E+00,9.88E-01,0.005074166
3.79E+03,4.07E+00,4.12E+00,9.89E-01,0.004840116
3.79E+03,4.14E+00,4.18E+00,9.89E-01,0.004748604
3.79E+03,4.15E+00,4.20E+00,9.89E-01,0.004751974
3.80E+03,4.04E+00,4.08E+00,9.89E-01,0.004788026
3.80E+03,3.98E+00,4.02E+00,9.89E-01,0.004777042
3.80E+03,3.75E+00,3.79E+00,9.89E-01,0.004865018
3.81E+03,3.96E+00,4.00E+00,9.90E-01,0.004407882
3.81E+03,4.07E+00,4.11E+00,9.90E-01,0.004512781
3.81E+03,4.22E+00,4.26E+00,9.90E-01,0.004347039
3.82E+03,3.83E+00,3.87E+00,9.90E-01,0.004514446
3.82E+03,3.96E+00,4.00E+00,9.90E-01,0.004457781
3.82E+03,3.91E+00,3.94E+00,9.90E-01,0.004340922
3.83E+03,4.17E+00,4.21E+00,9.90E-01,0.004155439
3.83E+03,4.19E+00,4.24E+00,9.90E-01,0.004236145
3.83E+03,4.09E+00,4.13E+00,9.90E-01,0.004296995
3.84E+03,3.92E+00,3.96E+00,9.90E-01,0.004275227
3.84E+03,3.88E+00,3.91E+00,9.91E-01,0.004050847
3.84E+03,4.12E+00,4.16E+00,9.91E-01,0.003869467
3.85E+03,4.28E+00,4.32E+00,9.91E-01,0.004057395
3.85E+03,4.19E+00,4.23E+00,9.91E-01,0.003983726
3.85E+03,3.43E+00,3.47E+00,9.91E-01,0.0040663
3.86E+03,3.93E+00,3.97E+00,9.90E-01,0.004181491
3.86E+03,4.27E+00,4.31E+00,9.91E-01,0.003861547
3.86E+03,4.11E+00,4.15E+00,9.91E-01,0.004120166
3.87E+03,4.12E+00,4.16E+00,9.91E-01,0.004098244
3.87E+03,3.93E+00,3.96E+00,9.91E-01,0.004074812
3.87E+03,4.15E+00,4.19E+00,9.91E-01,0.003916334
3.88E+03,4.29E+00,4.32E+00,9.91E-01,0.003914069
3.88E+03,4.14E+00,4.18E+00,9.91E-01,0.004101114
3.88E+03,4.19E+00,4.22E+00,9.91E-01,0.003914398
3.89E+03,4.09E+00,4.13E+00,9.91E-01,0.003828781
3.89E+03,4.19E+00,4.22E+00,9.91E-01,0.003885548
3.89E+03,4.23E+00,4.27E+00,9.91E-01,0.003940749
3.90E+03,4.29E+00,4.32E+00,9.91E-01,0.00393641
3.90E+03,4.04E+00,4.08E+00,9.90E-01,0.004148585
3.90E+03,4.00E+00,4.04E+00,9.91E-01,0.004112849
3.91E+03,4.25E+00,4.29E+00,9.91E-01,0.003783913
3.91E+03,4.36E+00,4.40E+00,9.91E-01,0.003783823
3.91E+03,4.34E+00,4.38E+00,9.91E-01,0.003781293
3.92E+03,4.21E+00,4.25E+00,9.91E-01,0.003764645
3.92E+03,4.26E+00,4.29E+00,9.91E-01,0.003734075
3.92E+03,4.27E+00,4.31E+00,9.91E-01,0.003744452
3.93E+03,4.30E+00,4.34E+00,9.91E-01,0.00398433
3.93E+03,4.25E+00,4.29E+00,9.91E-01,0.004004923
3.93E+03,4.26E+00,4.30E+00,9.91E-01,0.003889214
3.94E+03,4.32E+00,4.36E+00,9.91E-01,0.003789173
3.94E+03,4.29E+00,4.33E+00,9.91E-01,0.003825598
3.94E+03,4.26E+00,4.29E+00,9.91E-01,0.003743924
3.95E+03,4.26E+00,4.30E+00,9.91E-01,0.003743882
3.95E+03,4.26E+00,4.30E+00,9.92E-01,0.003668695
3.95E+03,4.29E+00,4.33E+00,9.91E-01,0.003782829
3.96E+03,4.28E+00,4.32E+00,9.91E-01,0.003724824
3.96E+03,4.27E+00,4.31E+00,9.91E-01,0.004008652
3.96E+03,4.27E+00,4.31E+00,9.92E-01,0.003668926
3.97E+03,4.27E+00,4.30E+00,9.92E-01,0.003676985
3.97E+03,4.25E+00,4.29E+00,9.91E-01,0.003875911
3.97E+03,4.24E+00,4.28E+00,9.91E-01,0.003848457
3.98E+03,4.25E+00,4.28E+00,9.92E-01,0.003552027
3.98E+03,4.24E+00,4.27E+00,9.91E-01,0.003748205
3.98E+03,4.23E+00,4.27E+00,9.92E-01,0.003635908
3.99E+03,4.22E+00,4.26E+00,9.91E-01,0.003745264
3.99E+03,4.21E+00,4.24E+00,9.92E-01,0.003682007
3.99E+03,4.20E+00,4.24E+00,9.92E-01,0.003683468
4.00E+03,4.20E+00,4.23E+00,9.92E-01,0.003559755
4.00E+03,4.19E+00,4.23E+00,9.92E-01,0.003525801