File: Battery Data/Lydia_data/Salt water CSV/Pure water.CSV
Wavenumber,Absorbance (I),Background (I0),T,A
4.00E+02,6.26E-02,3.16E-01,1.98E-01,0.7024595
4.04E+02,7.57E-02,3.72E-01,2.04E-01,0.690833
4.07E+02,8.12E-02,4.21E-01,1.93E-01,0.715126
4.10E+02,9.09E-02,4.75E-01,1.91E-01,0.718073
4.14E+02,1.10E-01,5.33E-01,2.06E-01,0.686268
4.17E+02,1.15E-01,5.78E-01,1.99E-01,0.701847
4.20E+02,1.15E-01,6.29E-01,1.82E-01,0.739606
4.24E+02,1.27E-01,7.00E-01,1.82E-01,0.739707
4.27E+02,1.55E-01,7.65E-01,2.03E-01,0.692787
4.31E+02,1.64E-01,8.20E-01,2.01E-01,0.697461
4.34E+02,1.76E-01,8.72E-01,2.02E-01,0.695676
4.37E+02,1.91E-01,9.24E-01,2.07E-01,0.684817
4.41E+02,1.95E-01,9.76E-01,2.00E-01,0.699926
4.44E+02,2.03E-01,1.02E+00,1.98E-01,0.702903
4.47E+02,2.26E-01,1.07E+00,2.11E-01,0.676711
4.51E+02,2.27E-01,1.11E+00,2.04E-01,0.690496
4.54E+02,2.32E-01,1.15E+00,2.01E-01,0.696016
4.58E+02,2.35E-01,1.16E+00,2.01E-01,0.69602
4.61E+02,2.52E-01,1.21E+00,2.08E-01,0.681901
4.64E+02,2.65E-01,1.26E+00,2.11E-01,0.675561
4.68E+02,2.72E-01,1.30E+00,2.09E-01,0.67916
4.71E+02,2.86E-01,1.34E+00,2.13E-01,0.671046
4.74E+02,2.92E-01,1.40E+00,2.09E-01,0.680843
4.78E+02,3.10E-01,1.46E+00,2.12E-01,0.673286
4.81E+02,3.23E-01,1.51E+00,2.14E-01,0.670478
4.85E+02,3.46E-01,1.57E+00,2.21E-01,0.65615
4.88E+02,3.57E-01,1.63E+00,2.19E-01,0.660502
4.91E+02,3.64E-01,1.70E+00,2.14E-01,0.669663
4.95E+02,3.88E-01,1.77E+00,2.18E-01,0.660581
4.98E+02,4.08E-01,1.85E+00,2.20E-01,0.656595
5.01E+02,4.23E-01,1.92E+00,2.20E-01,0.65668
5.05E+02,4.45E-01,2.00E+00,2.22E-01,0.653731
5.08E+02,4.66E-01,2.09E+00,2.23E-01,0.651234
5.12E+02,4.90E-01,2.18E+00,2.25E-01,0.647301
5.15E+02,5.07E-01,2.26E+00,2.24E-01,0.649225
5.18E+02,5.26E-01,2.34E+00,2.24E-01,0.64916
5.22E+02,5.55E-01,2.45E+00,2.27E-01,0.643932
5.25E+02,5.77E-01,2.53E+00,2.28E-01,0.642675
5.28E+02,6.06E-01,2.62E+00,2.31E-01,0.636726
5.32E+02,6.26E-01,2.70E+00,2.32E-01,0.634125
5.35E+02,6.45E-01,2.75E+00,2.35E-01,0.629221
5.39E+02,6.55E-01,2.79E+00,2.35E-01,0.629235
5.42E+02,6.65E-01,2.83E+00,2.35E-01,0.628586
5.45E+02,6.80E-01,2.86E+00,2.38E-01,0.62394
5.49E+02,6.99E-01,2.90E+00,2.41E-01,0.617365
5.52E+02,7.11E-01,2.94E+00,2.42E-01,0.616319
5.55E+02,7.27E-01,2.98E+00,2.44E-01,0.612339
5.59E+02,7.43E-01,3.02E+00,2.46E-01,0.608451
5.62E+02,7.56E-01,3.06E+00,2.47E-01,0.608147
5.66E+02,7.72E-01,3.12E+00,2.48E-01,0.606219
5.69E+02,7.91E-01,3.16E+00,2.50E-01,0.601554
5.72E+02,8.11E-01,3.21E+00,2.52E-01,0.597927
5.76E+02,8.28E-01,3.25E+00,2.55E-01,0.594244
5.79E+02,8.52E-01,3.30E+00,2.58E-01,0.58787
5.82E+02,8.70E-01,3.34E+00,2.60E-01,0.584571
5.86E+02,8.83E-01,3.38E+00,2.61E-01,0.583051
5.89E+02,8.99E-01,3.41E+00,2.64E-01,0.579148
5.93E+02,9.23E-01,3.47E+00,2.66E-01,0.5758
5.96E+02,9.47E-01,3.53E+00,2.68E-01,0.571553
5.99E+02,9.68E-01,3.58E+00,2.70E-01,0.568203
6.03E+02,9.96E-01,3.63E+00,2.74E-01,0.562256
6.06E+02,1.02E+00,3.68E+00,2.76E-01,0.558836
6.09E+02,1.03E+00,3.72E+00,2.78E-01,0.556506
6.13E+02,1.06E+00,3.78E+00,2.81E-01,0.551261
6.16E+02,1.08E+00,3.82E+00,2.83E-01,0.548325
6.20E+02,1.11E+00,3.87E+00,2.86E-01,0.543897
6.23E+02,1.14E+00,3.93E+00,2.90E-01,0.537667
6.26E+02,1.16E+00,3.98E+00,2.93E-01,0.53352
6.30E+02,1.20E+00,4.03E+00,2.96E-01,0.528113
6.33E+02,1.21E+00,4.08E+00,2.97E-01,0.527245
6.36E+02,1.23E+00,4.12E+00,2.99E-01,0.524352
6.40E+02,1.26E+00,4.16E+00,3.02E-01,0.519861
6.43E+02,1.28E+00,4.20E+00,3.04E-01,0.516461
6.47E+02,1.29E+00,4.23E+00,3.06E-01,0.514986
6.50E+02,1.31E+00,4.26E+00,3.07E-01,0.512539
6.53E+02,1.33E+00,4.29E+00,3.11E-01,0.50773
6.57E+02,1.36E+00,4.33E+00,3.15E-01,0.501642
6.60E+02,1.39E+00,4.36E+00,3.19E-01,0.496881
6.63E+02,1.42E+00,4.40E+00,3.23E-01,0.490316
6.67E+02,1.23E+00,4.35E+00,2.83E-01,0.548132
6.70E+02,1.36E+00,4.44E+00,3.07E-01,0.51343
6.74E+02,1.50E+00,4.53E+00,3.32E-01,0.479174
6.77E+02,1.53E+00,4.57E+00,3.34E-01,0.476755
6.80E+02,1.55E+00,4.62E+00,3.36E-01,0.473475
6.84E+02,1.59E+00,4.66E+00,3.42E-01,0.466592
6.87E+02,1.63E+00,4.70E+00,3.47E-01,0.460146
6.90E+02,1.67E+00,4.75E+00,3.52E-01,0.454025
6.94E+02,1.72E+00,4.79E+00,3.59E-01,0.444999
6.97E+02,1.76E+00,4.82E+00,3.64E-01,0.438557
7.01E+02,1.79E+00,4.86E+00,3.69E-01,0.43334
7.04E+02,1.83E+00,4.88E+00,3.74E-01,0.427056
7.07E+02,1.86E+00,4.91E+00,3.79E-01,0.420815
7.11E+02,1.90E+00,4.93E+00,3.85E-01,0.414906
7.14E+02,1.92E+00,4.95E+00,3.89E-01,0.410175
7.17E+02,1.95E+00,4.96E+00,3.93E-01,0.405503
7.21E+02,1.97E+00,4.97E+00,3.96E-01,0.401859
7.24E+02,2.00E+00,4.99E+00,4.01E-01,0.396567
7.28E+02,2.03E+00,5.01E+00,4.06E-01,0.391774
7.31E+02,2.06E+00,5.03E+00,4.10E-01,0.386956
7.34E+02,2.09E+00,5.04E+00,4.15E-01,0.382443
7.38E+02,2.12E+00,5.06E+00,4.20E-01,0.376489
7.41E+02,2.15E+00,5.08E+00,4.24E-01,0.372201
7.44E+02,2.19E+00,5.10E+00,4.29E-01,0.36776
7.48E+02,2.23E+00,5.13E+00,4.34E-01,0.362678
7.51E+02,2.26E+00,5.16E+00,4.38E-01,0.358263
7.55E+02,2.30E+00,5.19E+00,4.44E-01,0.35307
7.58E+02,2.34E+00,5.22E+00,4.48E-01,0.3486
7.61E+02,2.37E+00,5.24E+00,4.53E-01,0.344055
7.65E+02,2.41E+00,5.25E+00,4.58E-01,0.338831
7.68E+02,2.44E+00,5.27E+00,4.63E-01,0.334002
7.71E+02,2.48E+00,5.29E+00,4.68E-01,0.329295
7.75E+02,2.51E+00,5.30E+00,4.73E-01,0.32526
7.78E+02,2.54E+00,5.31E+00,4.78E-01,0.32027
7.82E+02,2.57E+00,5.32E+00,4.83E-01,0.315922
7.85E+02,2.59E+00,5.32E+00,4.88E-01,0.311945
7.88E+02,2.62E+00,5.31E+00,4.93E-01,0.307084
7.92E+02,2.64E+00,5.30E+00,4.98E-01,0.303017
7.95E+02,2.66E+00,5.29E+00,5.03E-01,0.298781
7.98E+02,2.68E+00,5.28E+00,5.08E-01,0.294147
8.02E+02,2.71E+00,5.28E+00,5.13E-01,0.289626
8.05E+02,2.75E+00,5.30E+00,5.19E-01,0.285205
8.09E+02,2.79E+00,5.32E+00,5.24E-01,0.280816
8.12E+02,2.83E+00,5.35E+00,5.30E-01,0.27595
8.15E+02,2.88E+00,5.37E+00,5.36E-01,0.270612
8.19E+02,2.92E+00,5.38E+00,5.42E-01,0.266338
8.22E+02,2.95E+00,5.40E+00,5.48E-01,0.261572
8.25E+02,2.99E+00,5.41E+00,5.53E-01,0.257147
8.29E+02,3.03E+00,5.42E+00,5.59E-01,0.252422
8.32E+02,3.06E+00,5.43E+00,5.64E-01,0.248494
8.36E+02,3.09E+00,5.43E+00,5.69E-01,0.244672
8.39E+02,3.12E+00,5.44E+00,5.74E-01,0.240735
8.42E+02,3.16E+00,5.44E+00,5.81E-01,0.236118
8.46E+02,3.20E+00,5.46E+00,5.86E-01,0.232451
8.49E+02,3.24E+00,5.48E+00,5.90E-01,0.228821
8.52E+02,3.28E+00,5.51E+00,5.95E-01,0.225462
8.56E+02,3.32E+00,5.54E+00,6.00E-01,0.222124
8.59E+02,3.37E+00,5.57E+00,6.04E-01,0.218699
8.63E+02,3.42E+00,5.60E+00,6.10E-01,0.214777
8.66E+02,3.46E+00,5.63E+00,6.15E-01,0.21122
8.69E+02,3.51E+00,5.66E+00,6.20E-01,0.207424
8.73E+02,3.57E+00,5.71E+00,6.25E-01,0.204215
8.76E+02,3.62E+00,5.75E+00,6.29E-01,0.201171
8.79E+02,3.67E+00,5.79E+00,6.34E-01,0.197571
8.83E+02,3.73E+00,5.83E+00,6.39E-01,0.194331
8.86E+02,3.78E+00,5.87E+00,6.43E-01,0.191575
8.90E+02,3.83E+00,5.91E+00,6.48E-01,0.188391
8.93E+02,3.87E+00,5.94E+00,6.52E-01,0.18588
8.96E+02,3.93E+00,5.99E+00,6.56E-01,0.182946
9.00E+02,3.98E+00,6.03E+00,6.61E-01,0.179896
9.03E+02,4.03E+00,6.07E+00,6.64E-01,0.177671
9.06E+02,4.09E+00,6.12E+00,6.68E-01,0.175032
9.10E+02,4.14E+00,6.17E+00,6.72E-01,0.172704
9.13E+02,4.20E+00,6.22E+00,6.75E-01,0.170671
9.17E+02,4.25E+00,6.27E+00,6.78E-01,0.168816
9.20E+02,4.31E+00,6.33E+00,6.81E-01,0.166557
9.23E+02,4.37E+00,6.39E+00,6.85E-01,0.164554
9.27E+02,4.43E+00,6.45E+00,6.88E-01,0.16259
9.30E+02,4.50E+00,6.51E+00,6.91E-01,0.160479
9.33E+02,4.56E+00,6.57E+00,6.94E-01,0.158528
9.37E+02,4.62E+00,6.63E+00,6.96E-01,0.157095
9.40E+02,4.68E+00,6.69E+00,7.00E-01,0.155016
9.44E+02,4.74E+00,6.75E+00,7.02E-01,0.153813
9.47E+02,4.79E+00,6.80E+00,7.04E-01,0.152396
9.50E+02,4.84E+00,6.86E+00,7.06E-01,0.15116
9.54E+02,4.90E+00,6.90E+00,7.09E-01,0.149285
9.57E+02,4.94E+00,6.95E+00,7.11E-01,0.147888
9.60E+02,4.98E+00,6.99E+00,7.13E-01,0.14685
9.64E+02,5.02E+00,7.03E+00,7.15E-01,0.145684
9.67E+02,5.06E+00,7.06E+00,7.17E-01,0.144503
9.71E+02,5.09E+00,7.08E+00,7.19E-01,0.143562
9.74E+02,5.12E+00,7.11E+00,7.20E-01,0.142712
9.77E+02,5.14E+00,7.13E+00,7.21E-01,0.141865
9.81E+02,5.16E+00,7.14E+00,7.23E-01,0.1409
9.84E+02,5.18E+00,7.15E+00,7.24E-01,0.139964
9.87E+02,5.20E+00,7.17E+00,7.25E-01,0.139364
9.91E+02,5.22E+00,7.18E+00,7.27E-01,0.13873
9.94E+02,5.23E+00,7.19E+00,7.28E-01,0.138052
9.98E+02,5.25E+00,7.20E+00,7.29E-01,0.137403
1.00E+03,5.25E+00,7.20E+00,7.30E-01,0.136759
1.00E+03,5.25E+00,7.19E+00,7.30E-01,0.136402
1.01E+03,5.24E+00,7.16E+00,7.31E-01,0.135878
1.01E+03,5.21E+00,7.12E+00,7.32E-01,0.135439
1.01E+03,5.18E+00,7.07E+00,7.32E-01,0.135356
1.02E+03,5.15E+00,7.03E+00,7.33E-01,0.135103
1.02E+03,5.12E+00,6.99E+00,7.33E-01,0.134693
1.02E+03,5.10E+00,6.95E+00,7.34E-01,0.134547
1.03E+03,5.08E+00,6.91E+00,7.34E-01,0.134081
1.03E+03,5.05E+00,6.87E+00,7.35E-01,0.133675
1.03E+03,5.03E+00,6.83E+00,7.36E-01,0.13335
1.04E+03,5.00E+00,6.79E+00,7.36E-01,0.132906
1.04E+03,4.97E+00,6.74E+00,7.37E-01,0.132443
1.04E+03,4.93E+00,6.68E+00,7.38E-01,0.132215
1.05E+03,4.89E+00,6.63E+00,7.38E-01,0.1318202
1.05E+03,4.86E+00,6.58E+00,7.39E-01,0.131532
1.05E+03,4.84E+00,6.55E+00,7.39E-01,0.131221
1.06E+03,4.83E+00,6.52E+00,7.40E-01,0.130851
1.06E+03,4.82E+00,6.51E+00,7.41E-01,0.130474
1.07E+03,4.81E+00,6.50E+00,7.41E-01,0.130422
1.07E+03,4.81E+00,6.49E+00,7.41E-01,0.130034
1.07E+03,4.80E+00,6.48E+00,7.41E-01,0.12993
1.08E+03,4.80E+00,6.47E+00,7.42E-01,0.129424
1.08E+03,4.84E+00,6.51E+00,7.42E-01,0.129306
1.08E+03,4.87E+00,6.56E+00,7.42E-01,0.129435
1.09E+03,4.90E+00,6.60E+00,7.42E-01,0.129466
1.09E+03,4.93E+00,6.65E+00,7.42E-01,0.129758
1.09E+03,4.97E+00,6.70E+00,7.42E-01,0.129634
1.10E+03,5.01E+00,6.76E+00,7.41E-01,0.129967
1.10E+03,5.07E+00,6.83E+00,7.42E-01,0.129801
1.10E+03,5.13E+00,6.91E+00,7.42E-01,0.129537
1.11E+03,5.20E+00,7.00E+00,7.43E-01,0.129226
1.11E+03,5.27E+00,7.10E+00,7.43E-01,0.128895
1.11E+03,5.36E+00,7.20E+00,7.44E-01,0.1284493
1.12E+03,5.45E+00,7.31E+00,7.45E-01,0.128061
1.12E+03,5.54E+00,7.43E+00,7.45E-01,0.127857
1.12E+03,5.63E+00,7.55E+00,7.45E-01,0.127683
1.13E+03,5.72E+00,7.66E+00,7.46E-01,0.127362
1.13E+03,5.80E+00,7.78E+00,7.46E-01,0.127124
1.13E+03,5.88E+00,7.88E+00,7.46E-01,0.127083
1.14E+03,5.95E+00,7.98E+00,7.46E-01,0.127031
1.14E+03,6.01E+00,8.05E+00,7.46E-01,0.12709
1.14E+03,6.06E+00,8.11E+00,7.47E-01,0.12679
1.15E+03,6.15E+00,8.23E+00,7.47E-01,0.126675
1.15E+03,6.22E+00,8.33E+00,7.47E-01,0.12691
1.15E+03,6.28E+00,8.42E+00,7.47E-01,0.126954
1.16E+03,6.35E+00,8.50E+00,7.47E-01,0.126952
1.16E+03,6.40E+00,8.58E+00,7.47E-01,0.12695
1.16E+03,6.46E+00,8.66E+00,7.46E-01,0.127038
1.17E+03,6.53E+00,8.75E+00,7.46E-01,0.12705
1.17E+03,6.60E+00,8.84E+00,7.46E-01,0.127031
1.17E+03,6.66E+00,8.92E+00,7.46E-01,0.127181
1.18E+03,6.70E+00,8.99E+00,7.46E-01,0.127366
1.18E+03,6.72E+00,9.01E+00,7.46E-01,0.127138
1.18E+03,6.81E+00,9.12E+00,7.46E-01,0.127055
1.19E+03,6.88E+00,9.23E+00,7.46E-01,0.127435
1.19E+03,6.93E+00,9.29E+00,7.46E-01,0.127444
1.19E+03,6.98E+00,9.36E+00,7.46E-01,0.127435
1.20E+03,7.02E+00,9.42E+00,7.45E-01,0.127741
1.20E+03,7.07E+00,9.49E+00,7.45E-01,0.127734
1.20E+03,7.12E+00,9.55E+00,7.45E-01,0.127819
1.21E+03,7.16E+00,9.61E+00,7.45E-01,0.127744
1.21E+03,7.20E+00,9.67E+00,7.45E-01,0.128099
1.21E+03,7.24E+00,9.73E+00,7.44E-01,0.128196
1.22E+03,7.29E+00,9.79E+00,7.45E-01,0.128121
1.22E+03,7.33E+00,9.84E+00,7.44E-01,0.128229
1.22E+03,7.36E+00,9.90E+00,7.44E-01,0.128387
1.23E+03,7.40E+00,9.95E+00,7.44E-01,0.128551
1.23E+03,7.44E+00,1.00E+01,7.44E-01,0.128602
1.23E+03,7.49E+00,1.01E+01,7.44E-01,0.128572
1.24E+03,7.53E+00,1.01E+01,7.44E-01,0.128717
1.24E+03,7.56E+00,1.02E+01,7.43E-01,0.129054
1.24E+03,7.59E+00,1.02E+01,7.43E-01,0.129041
1.25E+03,7.61E+00,1.02E+01,7.43E-01,0.1291126
1.25E+03,7.62E+00,1.03E+01,7.43E-01,0.129286
1.25E+03,7.61E+00,1.03E+01,7.42E-01,0.129797
1.26E+03,7.55E+00,1.02E+01,7.40E-01,0.130855
1.26E+03,7.50E+00,1.02E+01,7.38E-01,0.131718
1.26E+03,7.54E+00,1.02E+01,7.40E-01,0.130948
1.27E+03,7.63E+00,1.03E+01,7.41E-01,0.130015
1.27E+03,7.69E+00,1.04E+01,7.42E-01,0.129775
1.27E+03,7.76E+00,1.04E+01,7.43E-01,0.129154
1.28E+03,7.80E+00,1.05E+01,7.43E-01,0.129077
1.28E+03,7.83E+00,1.05E+01,7.43E-01,0.129074
1.28E+03,7.85E+00,1.06E+01,7.43E-01,0.129181
1.29E+03,7.85E+00,1.06E+01,7.42E-01,0.129473
1.29E+03,7.88E+00,1.06E+01,7.42E-01,0.129343
1.29E+03,7.89E+00,1.06E+01,7.42E-01,0.129361
1.30E+03,7.89E+00,1.06E+01,7.43E-01,0.129283
1.30E+03,7.90E+00,1.06E+01,7.43E-01,0.129156
1.30E+03,7.91E+00,1.06E+01,7.43E-01,0.129062
1.31E+03,7.92E+00,1.07E+01,7.42E-01,0.129327
1.31E+03,7.93E+00,1.07E+01,7.42E-01,0.129538
1.31E+03,7.93E+00,1.07E+01,7.41E-01,0.1299293
1.32E+03,7.92E+00,1.07E+01,7.40E-01,0.130745
1.32E+03,7.97E+00,1.07E+01,7.42E-01,0.129411
1.32E+03,7.99E+00,1.08E+01,7.43E-01,0.128845
1.33E+03,7.99E+00,1.07E+01,7.43E-01,0.129077
1.33E+03,7.97E+00,1.07E+01,7.43E-01,0.129026
1.34E+03,7.94E+00,1.07E+01,7.41E-01,0.130218
1.34E+03,7.81E+00,1.07E+01,7.33E-01,0.134654
1.34E+03,7.87E+00,1.07E+01,7.38E-01,0.131965
1.35E+03,7.93E+00,1.07E+01,7.42E-01,0.129315
1.35E+03,7.89E+00,1.06E+01,7.42E-01,0.129784
1.35E+03,7.86E+00,1.06E+01,7.41E-01,0.130023
1.36E+03,7.81E+00,1.05E+01,7.40E-01,0.130481
1.36E+03,7.75E+00,1.05E+01,7.40E-01,0.130848
1.36E+03,7.50E+00,1.03E+01,7.28E-01,0.137902
1.37E+03,7.64E+00,1.04E+01,7.38E-01,0.132051
1.37E+03,7.67E+00,1.04E+01,7.39E-01,0.131501
1.37E+03,7.62E+00,1.04E+01,7.35E-01,0.133712
1.38E+03,7.57E+00,1.03E+01,7.32E-01,0.13567
1.38E+03,7.68E+00,1.04E+01,7.39E-01,0.131235
1.38E+03,7.62E+00,1.03E+01,7.41E-01,0.130336
1.39E+03,7.45E+00,1.02E+01,7.31E-01,0.135811
1.39E+03,7.55E+00,1.03E+01,7.31E-01,0.136051
1.39E+03,7.61E+00,1.04E+01,7.32E-01,0.13526
1.40E+03,7.39E+00,1.03E+01,7.19E-01,0.143302
1.40E+03,7.46E+00,1.03E+01,7.23E-01,0.1408565
1.40E+03,7.67E+00,1.04E+01,7.36E-01,0.13328
1.41E+03,7.60E+00,1.04E+01,7.32E-01,0.135558
1.41E+03,7.70E+00,1.04E+01,7.39E-01,0.131606
1.41E+03,7.69E+00,1.04E+01,7.38E-01,0.131966
1.42E+03,7.53E+00,1.03E+01,7.29E-01,0.137558
1.42E+03,7.00E+00,1.00E+01,6.98E-01,0.155864
1.42E+03,7.54E+00,1.03E+01,7.30E-01,0.136886
1.43E+03,7.65E+00,1.04E+01,7.36E-01,0.133271
1.43E+03,7.54E+00,1.03E+01,7.29E-01,0.137501
1.43E+03,7.63E+00,1.04E+01,7.34E-01,0.134377
1.44E+03,7.04E+00,1.01E+01,6.99E-01,0.155403
1.44E+03,7.64E+00,1.04E+01,7.33E-01,0.134858
1.44E+03,7.77E+00,1.05E+01,7.40E-01,0.131002
1.45E+03,7.64E+00,1.05E+01,7.30E-01,0.136616
1.45E+03,7.70E+00,1.05E+01,7.31E-01,0.136081
1.45E+03,7.68E+00,1.05E+01,7.29E-01,0.137516
1.46E+03,6.59E+00,9.90E+00,6.66E-01,0.176509
1.46E+03,7.47E+00,1.05E+01,7.14E-01,0.146255
1.46E+03,7.64E+00,1.06E+01,7.23E-01,0.141135
1.47E+03,7.69E+00,1.06E+01,7.25E-01,0.139776
1.47E+03,7.66E+00,1.06E+01,7.21E-01,0.142211
1.47E+03,7.12E+00,1.04E+01,6.88E-01,0.16266
1.48E+03,7.70E+00,1.07E+01,7.17E-01,0.144287
1.48E+03,8.00E+00,1.09E+01,7.33E-01,0.13506
1.48E+03,8.03E+00,1.09E+01,7.34E-01,0.134364
1.49E+03,7.71E+00,1.08E+01,7.15E-01,0.145897
1.49E+03,7.48E+00,1.07E+01,7.01E-01,0.154208
1.49E+03,7.84E+00,1.08E+01,7.23E-01,0.140925
1.50E+03,7.31E+00,1.05E+01,6.94E-01,0.158369
1.50E+03,7.77E+00,1.08E+01,7.18E-01,0.143771
1.50E+03,7.46E+00,1.06E+01,7.04E-01,0.152595
1.51E+03,6.38E+00,9.94E+00,6.41E-01,0.192842
1.51E+03,7.47E+00,1.06E+01,7.02E-01,0.153457
1.51E+03,7.57E+00,1.07E+01,7.09E-01,0.149056
1.52E+03,7.20E+00,1.05E+01,6.88E-01,0.16218
1.52E+03,6.69E+00,1.01E+01,6.63E-01,0.178696
1.52E+03,7.08E+00,1.03E+01,6.85E-01,0.164271
1.53E+03,7.29E+00,1.04E+01,6.99E-01,0.155655
1.53E+03,7.42E+00,1.05E+01,7.09E-01,0.149178
1.53E+03,6.99E+00,1.02E+01,6.88E-01,0.162227
1.54E+03,6.65E+00,9.80E+00,6.78E-01,0.168674
1.54E+03,5.73E+00,9.13E+00,6.28E-01,0.202312
1.54E+03,6.47E+00,9.57E+00,6.75E-01,0.170406
1.55E+03,6.96E+00,9.88E+00,7.05E-01,0.151974
1.55E+03,6.93E+00,9.91E+00,6.99E-01,0.155351
1.55E+03,6.59E+00,9.73E+00,6.77E-01,0.169165
1.56E+03,5.59E+00,9.10E+00,6.14E-01,0.211793
1.56E+03,6.16E+00,9.46E+00,6.51E-01,0.186271
1.56E+03,6.95E+00,1.00E+01,6.94E-01,0.15853
1.57E+03,6.74E+00,9.89E+00,6.81E-01,0.166857
1.57E+03,6.73E+00,9.89E+00,6.80E-01,0.167521
1.57E+03,6.43E+00,9.67E+00,6.65E-01,0.17746
1.58E+03,6.48E+00,9.73E+00,6.66E-01,0.176354
1.58E+03,6.83E+00,9.99E+00,6.84E-01,0.164695
1.58E+03,6.77E+00,9.97E+00,6.79E-01,0.168269
1.59E+03,6.70E+00,9.97E+00,6.72E-01,0.172482
1.59E+03,6.63E+00,9.97E+00,6.65E-01,0.177318
1.59E+03,6.52E+00,9.94E+00,6.56E-01,0.183249
1.60E+03,6.46E+00,9.95E+00,6.49E-01,0.18749
1.60E+03,6.34E+00,9.93E+00,6.39E-01,0.194622
1.60E+03,6.24E+00,9.91E+00,6.29E-01,0.201309
1.61E+03,6.08E+00,9.87E+00,6.16E-01,0.210149
1.61E+03,6.00E+00,9.86E+00,6.09E-01,0.215728
1.62E+03,5.47E+00,9.50E+00,5.76E-01,0.239918
1.62E+03,5.43E+00,9.52E+00,5.70E-01,0.243864
1.62E+03,5.43E+00,9.59E+00,5.66E-01,0.247236
1.63E+03,5.34E+00,9.56E+00,5.58E-01,0.253069
1.63E+03,5.33E+00,9.57E+00,5.57E-01,0.254067
1.63E+03,5.34E+00,9.57E+00,5.58E-01,0.253382
1.64E+03,4.63E+00,8.99E+00,5.15E-01,0.28826
1.64E+03,5.15E+00,9.36E+00,5.51E-01,0.259175
1.64E+03,5.32E+00,9.45E+00,5.63E-01,0.249813
1.65E+03,4.83E+00,9.04E+00,5.35E-01,0.272041
1.65E+03,5.05E+00,9.17E+00,5.51E-01,0.258718
1.65E+03,4.22E+00,8.36E+00,5.05E-01,0.296815
1.66E+03,5.02E+00,8.97E+00,5.60E-01,0.251811
1.66E+03,5.56E+00,9.30E+00,5.98E-01,0.223258
1.66E+03,5.36E+00,9.09E+00,5.90E-01,0.229215
1.67E+03,5.62E+00,9.18E+00,6.13E-01,0.212643
1.67E+03,5.25E+00,8.85E+00,5.93E-01,0.226758
1.67E+03,5.52E+00,8.94E+00,6.17E-01,0.209769
1.68E+03,5.40E+00,8.77E+00,6.16E-01,0.210716
1.68E+03,5.80E+00,8.95E+00,6.48E-01,0.188751
1.68E+03,5.24E+00,8.49E+00,6.17E-01,0.209381
1.69E+03,5.32E+00,8.41E+00,6.32E-01,0.199225
1.69E+03,5.91E+00,8.77E+00,6.74E-01,0.17136
1.69E+03,5.93E+00,8.69E+00,6.83E-01,0.165707
1.70E+03,5.24E+00,8.13E+00,6.45E-01,0.190755
1.70E+03,5.02E+00,7.97E+00,6.30E-01,0.200617
1.70E+03,5.68E+00,8.32E+00,6.83E-01,0.165666
1.71E+03,5.82E+00,8.34E+00,6.98E-01,0.156306
1.71E+03,6.08E+00,8.41E+00,7.23E-01,0.140751
1.71E+03,5.93E+00,8.25E+00,7.19E-01,0.143506
1.72E+03,5.33E+00,7.80E+00,6.83E-01,0.165298
1.72E+03,5.72E+00,7.98E+00,7.16E-01,0.144872
1.72E+03,6.06E+00,8.12E+00,7.46E-01,0.127282
1.73E+03,6.08E+00,8.07E+00,7.53E-01,0.1233
1.73E+03,5.90E+00,7.93E+00,7.44E-01,0.128553
1.73E+03,5.19E+00,7.44E+00,6.98E-01,0.156228
1.74E+03,5.69E+00,7.70E+00,7.39E-01,0.1312362
1.74E+03,5.65E+00,7.64E+00,7.39E-01,0.131096
1.74E+03,5.80E+00,7.69E+00,7.55E-01,0.122121
1.75E+03,5.73E+00,7.61E+00,7.53E-01,0.123381
1.75E+03,5.46E+00,7.41E+00,7.37E-01,0.13265
1.75E+03,5.72E+00,7.50E+00,7.63E-01,0.117231
1.76E+03,5.66E+00,7.43E+00,7.62E-01,0.118315
1.76E+03,5.60E+00,7.35E+00,7.62E-01,0.117967
1.76E+03,5.61E+00,7.29E+00,7.69E-01,0.114318
1.77E+03,5.51E+00,7.18E+00,7.66E-01,0.11555
1.77E+03,5.22E+00,6.98E+00,7.49E-01,0.125512
1.77E+03,5.13E+00,6.84E+00,7.49E-01,0.125244
1.78E+03,5.38E+00,6.90E+00,7.79E-01,0.10857
1.78E+03,5.26E+00,6.78E+00,7.75E-01,0.11061
1.78E+03,5.21E+00,6.70E+00,7.77E-01,0.109487
1.79E+03,5.20E+00,6.64E+00,7.83E-01,0.106105
1.79E+03,4.92E+00,6.45E+00,7.64E-01,0.116923
1.79E+03,4.86E+00,6.35E+00,7.66E-01,0.115991
1.80E+03,4.95E+00,6.33E+00,7.81E-01,0.107395
1.80E+03,4.78E+00,6.18E+00,7.73E-01,0.111914
1.80E+03,4.80E+00,6.11E+00,7.85E-01,0.104903
1.81E+03,4.70E+00,5.96E+00,7.87E-01,0.103858
1.81E+03,4.51E+00,5.76E+00,7.82E-01,0.106559
1.81E+03,4.38E+00,5.54E+00,7.90E-01,0.102537
1.82E+03,4.08E+00,5.17E+00,7.90E-01,0.102617
1.82E+03,3.93E+00,4.97E+00,7.91E-01,0.1019011
1.82E+03,3.74E+00,4.82E+00,7.78E-01,0.109235
1.83E+03,3.65E+00,4.70E+00,7.77E-01,0.10943
1.83E+03,3.55E+00,4.57E+00,7.76E-01,0.11025
1.83E+03,3.56E+00,4.50E+00,7.91E-01,0.10165
1.84E+03,3.45E+00,4.37E+00,7.90E-01,0.102134
1.84E+03,3.32E+00,4.23E+00,7.87E-01,0.104139
1.84E+03,3.07E+00,4.02E+00,7.62E-01,0.117943
1.85E+03,3.15E+00,4.00E+00,7.87E-01,0.10396
1.85E+03,3.09E+00,3.90E+00,7.92E-01,0.101334
1.85E+03,3.01E+00,3.80E+00,7.92E-01,0.101052
1.86E+03,2.93E+00,3.70E+00,7.92E-01,0.10145
1.86E+03,2.86E+00,3.61E+00,7.92E-01,0.101135
1.86E+03,2.77E+00,3.51E+00,7.90E-01,0.102431
1.87E+03,2.61E+00,3.37E+00,7.73E-01,0.111843
1.87E+03,2.62E+00,3.32E+00,7.88E-01,0.103645
1.87E+03,2.57E+00,3.25E+00,7.93E-01,0.100727
1.88E+03,2.50E+00,3.15E+00,7.93E-01,0.100556
1.88E+03,2.43E+00,3.06E+00,7.93E-01,0.100946
1.89E+03,2.35E+00,2.97E+00,7.91E-01,0.101577
1.89E+03,2.25E+00,2.87E+00,7.85E-01,0.104995
1.89E+03,2.20E+00,2.79E+00,7.89E-01,0.102934
1.90E+03,2.13E+00,2.70E+00,7.89E-01,0.102858
1.90E+03,2.07E+00,2.62E+00,7.92E-01,0.101241
1.90E+03,2.00E+00,2.53E+00,7.91E-01,0.101638
1.91E+03,1.93E+00,2.45E+00,7.90E-01,0.102491
1.91E+03,1.86E+00,2.36E+00,7.87E-01,0.104027
1.91E+03,1.80E+00,2.28E+00,7.91E-01,0.101989
1.92E+03,1.73E+00,2.19E+00,7.87E-01,0.103759
1.92E+03,1.64E+00,2.11E+00,7.80E-01,0.107848
1.92E+03,1.59E+00,2.03E+00,7.84E-01,0.105787
1.93E+03,1.51E+00,1.92E+00,7.89E-01,0.10296
1.93E+03,1.43E+00,1.81E+00,7.90E-01,0.102636
1.93E+03,1.34E+00,1.70E+00,7.88E-01,0.103405
1.94E+03,1.26E+00,1.60E+00,7.89E-01,0.102873
1.94E+03,1.18E+00,1.50E+00,7.87E-01,0.103987
1.94E+03,1.09E+00,1.40E+00,7.78E-01,0.109164
1.95E+03,1.04E+00,1.32E+00,7.85E-01,0.105035
1.95E+03,9.73E-01,1.24E+00,7.87E-01,0.104246
1.95E+03,9.10E-01,1.16E+00,7.85E-01,0.105067
1.96E+03,8.33E-01,1.06E+00,7.85E-01,0.10506
1.96E+03,7.31E-01,9.30E-01,7.86E-01,0.104479
1.96E+03,6.91E-01,8.83E-01,7.83E-01,0.106429
1.97E+03,6.44E-01,8.28E-01,7.78E-01,0.108997
1.97E+03,6.08E-01,7.78E-01,7.81E-01,0.107087
1.97E+03,5.71E-01,7.31E-01,7.81E-01,0.107249
1.98E+03,5.44E-01,6.92E-01,7.86E-01,0.1047698
1.98E+03,5.85E-01,7.43E-01,7.88E-01,0.10349
1.98E+03,6.51E-01,8.32E-01,7.83E-01,0.106108
1.99E+03,6.83E-01,8.73E-01,7.83E-01,0.106508
1.99E+03,6.98E-01,8.94E-01,7.80E-01,0.107638
1.99E+03,7.04E-01,9.03E-01,7.80E-01,0.108083
2.00E+03,7.06E-01,9.03E-01,7.82E-01,0.106809
2.00E+03,6.84E-01,8.76E-01,7.80E-01,0.107779
2.00E+03,6.40E-01,8.20E-01,7.81E-01,0.107344
2.01E+03,5.82E-01,7.45E-01,7.81E-01,0.107177
2.01E+03,5.69E-01,7.26E-01,7.83E-01,0.106227
2.01E+03,5.61E-01,7.19E-01,7.81E-01,0.107309
2.02E+03,5.48E-01,7.06E-01,7.76E-01,0.109878
2.02E+03,5.43E-01,6.95E-01,7.80E-01,0.107682
2.02E+03,5.34E-01,6.85E-01,7.80E-01,0.107771
2.03E+03,5.27E-01,6.76E-01,7.81E-01,0.107542
2.03E+03,5.23E-01,6.73E-01,7.77E-01,0.109816
2.03E+03,5.35E-01,6.88E-01,7.77E-01,0.109403
2.04E+03,5.76E-01,7.40E-01,7.78E-01,0.108947
2.04E+03,6.23E-01,8.03E-01,7.76E-01,0.110174
2.04E+03,6.67E-01,8.58E-01,7.78E-01,0.109294
2.05E+03,7.12E-01,9.15E-01,7.78E-01,0.108775
2.05E+03,8.17E-01,1.05E+00,7.79E-01,0.10829
2.05E+03,9.10E-01,1.17E+00,7.78E-01,0.10877
2.06E+03,9.63E-01,1.24E+00,7.78E-01,0.108805
2.06E+03,1.00E+00,1.29E+00,7.79E-01,0.108556
2.06E+03,1.03E+00,1.33E+00,7.76E-01,0.109971
2.07E+03,1.07E+00,1.38E+00,7.78E-01,0.10891
2.07E+03,1.12E+00,1.44E+00,7.78E-01,0.109217
2.07E+03,1.17E+00,1.50E+00,7.76E-01,0.109973
2.08E+03,1.22E+00,1.57E+00,7.77E-01,0.109797
2.08E+03,1.28E+00,1.64E+00,7.77E-01,0.109466
2.08E+03,1.33E+00,1.70E+00,7.79E-01,0.108575
2.09E+03,1.36E+00,1.74E+00,7.78E-01,0.109022
2.09E+03,1.35E+00,1.75E+00,7.75E-01,0.110811
2.09E+03,1.32E+00,1.70E+00,7.76E-01,0.110222
2.10E+03,1.32E+00,1.70E+00,7.77E-01,0.109408
2.10E+03,1.34E+00,1.72E+00,7.77E-01,0.109693
2.10E+03,1.36E+00,1.75E+00,7.76E-01,0.110062
2.11E+03,1.38E+00,1.78E+00,7.77E-01,0.109837
2.11E+03,1.40E+00,1.80E+00,7.76E-01,0.109893
2.11E+03,1.42E+00,1.83E+00,7.75E-01,0.110575
2.12E+03,1.41E+00,1.82E+00,7.75E-01,0.110643
2.12E+03,1.37E+00,1.77E+00,7.74E-01,0.111132
2.12E+03,1.31E+00,1.69E+00,7.73E-01,0.111783
2.13E+03,1.21E+00,1.57E+00,7.72E-01,0.112637
2.13E+03,1.09E+00,1.40E+00,7.73E-01,0.111726
2.13E+03,9.47E-01,1.23E+00,7.71E-01,0.112769
2.14E+03,8.66E-01,1.12E+00,7.72E-01,0.112104
2.14E+03,7.92E-01,1.03E+00,7.71E-01,0.112774
2.14E+03,7.21E-01,9.35E-01,7.71E-01,0.113003
2.15E+03,6.56E-01,8.53E-01,7.69E-01,0.114143
2.15E+03,5.95E-01,7.73E-01,7.69E-01,0.113866
2.16E+03,5.12E-01,6.66E-01,7.68E-01,0.114695
2.16E+03,4.32E-01,5.59E-01,7.72E-01,0.112622
2.16E+03,4.70E-01,6.07E-01,7.75E-01,0.110845
2.17E+03,5.32E-01,6.86E-01,7.75E-01,0.110419
2.17E+03,5.86E-01,7.56E-01,7.75E-01,0.110731
2.17E+03,6.13E-01,7.93E-01,7.73E-01,0.111716
2.18E+03,6.18E-01,7.98E-01,7.75E-01,0.110838
2.18E+03,6.31E-01,8.14E-01,7.75E-01,0.110708
2.18E+03,6.39E-01,8.25E-01,7.75E-01,0.110885
2.19E+03,6.77E-01,8.67E-01,7.80E-01,0.107887
2.19E+03,7.12E-01,9.16E-01,7.77E-01,0.109335
2.19E+03,7.45E-01,9.59E-01,7.77E-01,0.109567
2.20E+03,7.78E-01,9.98E-01,7.79E-01,0.108514
2.20E+03,8.06E-01,1.03E+00,7.79E-01,0.108409
2.20E+03,8.33E-01,1.07E+00,7.80E-01,0.107726
2.21E+03,8.58E-01,1.10E+00,7.80E-01,0.108102
2.21E+03,8.85E-01,1.13E+00,7.82E-01,0.10697
2.21E+03,9.12E-01,1.17E+00,7.82E-01,0.106598
2.22E+03,9.40E-01,1.20E+00,7.83E-01,0.106199
2.22E+03,9.70E-01,1.24E+00,7.83E-01,0.106272
2.22E+03,1.00E+00,1.28E+00,7.84E-01,0.105876
2.23E+03,1.04E+00,1.33E+00,7.83E-01,0.105989
2.23E+03,1.08E+00,1.37E+00,7.84E-01,0.105419
2.23E+03,1.12E+00,1.43E+00,7.84E-01,0.105548
2.24E+03,1.16E+00,1.48E+00,7.85E-01,0.105085
2.24E+03,1.21E+00,1.54E+00,7.85E-01,0.104995
2.24E+03,1.26E+00,1.60E+00,7.85E-01,0.105013
2.25E+03,1.30E+00,1.66E+00,7.86E-01,0.104783
2.25E+03,1.35E+00,1.72E+00,7.86E-01,0.10482
2.25E+03,1.39E+00,1.77E+00,7.87E-01,0.103876
2.26E+03,1.44E+00,1.83E+00,7.88E-01,0.103552
2.26E+03,1.51E+00,1.92E+00,7.87E-01,0.10414
2.26E+03,1.57E+00,2.00E+00,7.87E-01,0.104077
2.27E+03,1.64E+00,2.08E+00,7.86E-01,0.104307
2.27E+03,1.72E+00,2.19E+00,7.86E-01,0.104346
2.27E+03,1.82E+00,2.31E+00,7.88E-01,0.103438
2.28E+03,1.93E+00,2.45E+00,7.88E-01,0.103427
2.28E+03,2.06E+00,2.61E+00,7.89E-01,0.102762
2.28E+03,2.22E+00,2.81E+00,7.90E-01,0.102358
2.29E+03,2.41E+00,3.06E+00,7.88E-01,0.103421
2.29E+03,2.60E+00,3.30E+00,7.86E-01,0.104574
2.29E+03,2.76E+00,3.53E+00,7.83E-01,0.106219
2.30E+03,2.90E+00,3.73E+00,7.78E-01,0.108793
2.30E+03,3.02E+00,3.91E+00,7.73E-01,0.111659
2.30E+03,3.13E+00,4.10E+00,7.65E-01,0.11626
2.31E+03,3.23E+00,4.28E+00,7.54E-01,0.12278
2.31E+03,3.31E+00,4.48E+00,7.38E-01,0.13219
2.31E+03,3.38E+00,4.70E+00,7.18E-01,0.143743
2.32E+03,3.46E+00,4.96E+00,6.97E-01,0.156928
2.32E+03,3.56E+00,5.30E+00,6.71E-01,0.173432
2.32E+03,3.81E+00,5.86E+00,6.50E-01,0.186829
2.33E+03,3.96E+00,6.25E+00,6.34E-01,0.198202
2.33E+03,3.85E+00,6.24E+00,6.17E-01,0.209844
2.33E+03,3.79E+00,6.20E+00,6.11E-01,0.213969
2.34E+03,3.73E+00,6.17E+00,6.05E-01,0.218433
2.34E+03,3.72E+00,6.17E+00,6.03E-01,0.219702
2.34E+03,3.84E+00,6.20E+00,6.20E-01,0.207753
2.35E+03,4.28E+00,6.26E+00,6.83E-01,0.165534
2.35E+03,4.16E+00,6.20E+00,6.71E-01,0.173246
2.35E+03,3.57E+00,6.01E+00,5.95E-01,0.225558
2.36E+03,3.27E+00,5.85E+00,5.59E-01,0.252387
2.36E+03,3.14E+00,5.71E+00,5.50E-01,0.259928
2.36E+03,3.12E+00,5.58E+00,5.59E-01,0.252692
2.37E+03,3.18E+00,5.45E+00,5.84E-01,0.233657
2.37E+03,3.34E+00,5.35E+00,6.24E-01,0.204734
2.37E+03,3.57E+00,5.27E+00,6.77E-01,0.169539
2.38E+03,3.79E+00,5.18E+00,7.32E-01,0.135742
2.38E+03,3.91E+00,5.07E+00,7.72E-01,0.112477
2.38E+03,3.92E+00,4.96E+00,7.92E-01,0.101405
2.39E+03,3.86E+00,4.84E+00,7.98E-01,0.0977285
2.39E+03,3.78E+00,4.72E+00,8.00E-01,0.0967332
2.39E+03,3.69E+00,4.61E+00,8.00E-01,0.09665519
2.40E+03,3.61E+00,4.51E+00,8.00E-01,0.0967527
2.40E+03,3.53E+00,4.40E+00,8.01E-01,0.0965774
2.40E+03,3.44E+00,4.30E+00,8.01E-01,0.096376
2.41E+03,3.38E+00,4.22E+00,8.01E-01,0.0960977
2.41E+03,3.34E+00,4.17E+00,8.01E-01,0.0961348
2.41E+03,3.30E+00,4.12E+00,8.02E-01,0.0960563
2.42E+03,3.26E+00,4.06E+00,8.01E-01,0.096125
2.42E+03,3.22E+00,4.01E+00,8.02E-01,0.0960416
2.43E+03,3.18E+00,3.97E+00,8.02E-01,0.09584184
2.43E+03,3.15E+00,3.93E+00,8.02E-01,0.0956935
2.43E+03,3.13E+00,3.90E+00,8.02E-01,0.09561516
2.44E+03,3.11E+00,3.87E+00,8.03E-01,0.0954175
2.44E+03,3.09E+00,3.86E+00,8.02E-01,0.0956111
2.44E+03,3.09E+00,3.84E+00,8.03E-01,0.0952308
2.45E+03,3.09E+00,3.84E+00,8.03E-01,0.095432
2.45E+03,3.09E+00,3.85E+00,8.03E-01,0.0951261
2.45E+03,3.11E+00,3.87E+00,8.04E-01,0.0948933
2.46E+03,3.13E+00,3.89E+00,8.03E-01,0.0951573
2.46E+03,3.14E+00,3.91E+00,8.03E-01,0.0954117
2.46E+03,3.14E+00,3.91E+00,8.03E-01,0.0952357
2.47E+03,3.13E+00,3.90E+00,8.03E-01,0.0951822
2.47E+03,3.12E+00,3.88E+00,8.03E-01,0.0951008
2.47E+03,3.11E+00,3.86E+00,8.03E-01,0.0950481
2.48E+03,3.09E+00,3.85E+00,8.03E-01,0.0950193
2.48E+03,3.08E+00,3.83E+00,8.03E-01,0.095068
2.48E+03,3.07E+00,3.82E+00,8.04E-01,0.094858
2.49E+03,3.06E+00,3.81E+00,8.04E-01,0.0946987
2.49E+03,3.05E+00,3.80E+00,8.04E-01,0.0946024
2.49E+03,3.05E+00,3.79E+00,8.05E-01,0.094415
2.50E+03,3.05E+00,3.79E+00,8.04E-01,0.0945105
2.50E+03,3.04E+00,3.79E+00,8.04E-01,0.0945832
2.50E+03,3.04E+00,3.78E+00,8.04E-01,0.0944752
2.51E+03,3.04E+00,3.78E+00,8.04E-01,0.0945821
2.51E+03,3.03E+00,3.77E+00,8.04E-01,0.0945796
2.51E+03,3.03E+00,3.77E+00,8.05E-01,0.0944227
2.52E+03,3.03E+00,3.77E+00,8.05E-01,0.0943156
2.52E+03,3.03E+00,3.77E+00,8.05E-01,0.0941695
2.52E+03,3.03E+00,3.77E+00,8.05E-01,0.0941358
2.53E+03,3.04E+00,3.77E+00,8.05E-01,0.0940904
2.53E+03,3.04E+00,3.78E+00,8.05E-01,0.0940091
2.53E+03,3.05E+00,3.79E+00,8.06E-01,0.0937311
2.54E+03,3.06E+00,3.80E+00,8.06E-01,0.0938384
2.54E+03,3.07E+00,3.81E+00,8.06E-01,0.093565
2.54E+03,3.09E+00,3.83E+00,8.06E-01,0.0936234
2.55E+03,3.10E+00,3.85E+00,8.06E-01,0.093518
2.55E+03,3.12E+00,3.87E+00,8.07E-01,0.0932535
2.55E+03,3.14E+00,3.90E+00,8.07E-01,0.0933137
2.56E+03,3.17E+00,3.93E+00,8.07E-01,0.0931969
2.56E+03,3.20E+00,3.96E+00,8.07E-01,0.0931752
2.56E+03,3.23E+00,4.00E+00,8.07E-01,0.0929915
2.57E+03,3.27E+00,4.05E+00,8.07E-01,0.0931615
2.57E+03,3.30E+00,4.09E+00,8.07E-01,0.0931923
2.57E+03,3.35E+00,4.15E+00,8.07E-01,0.0930456
2.58E+03,3.39E+00,4.21E+00,8.07E-01,0.0931514
2.58E+03,3.45E+00,4.27E+00,8.07E-01,0.09308
2.58E+03,3.51E+00,4.34E+00,8.08E-01,0.0926643
2.59E+03,3.57E+00,4.42E+00,8.08E-01,0.092551
2.59E+03,3.64E+00,4.51E+00,8.08E-01,0.0927762
2.59E+03,3.71E+00,4.60E+00,8.08E-01,0.0926015
2.60E+03,3.80E+00,4.70E+00,8.08E-01,0.0925653
2.60E+03,3.88E+00,4.81E+00,8.08E-01,0.09249978
2.60E+03,3.98E+00,4.92E+00,8.08E-01,0.092483
2.61E+03,4.08E+00,5.05E+00,8.08E-01,0.09243799
2.61E+03,4.20E+00,5.19E+00,8.08E-01,0.0925669
2.61E+03,4.32E+00,5.34E+00,8.08E-01,0.0924608
2.62E+03,4.45E+00,5.50E+00,8.08E-01,0.0923317
2.62E+03,4.59E+00,5.68E+00,8.09E-01,0.0922312
2.62E+03,4.74E+00,5.86E+00,8.08E-01,0.0923649
2.63E+03,4.90E+00,6.06E+00,8.08E-01,0.0923307
2.63E+03,5.07E+00,6.28E+00,8.08E-01,0.0924567
2.63E+03,5.26E+00,6.50E+00,8.08E-01,0.0923834
2.64E+03,5.45E+00,6.74E+00,8.08E-01,0.0924453
2.64E+03,5.65E+00,6.99E+00,8.08E-01,0.0925787
2.64E+03,5.86E+00,7.25E+00,8.08E-01,0.0925236
2.65E+03,6.07E+00,7.51E+00,8.08E-01,0.0924471
2.65E+03,6.28E+00,7.77E+00,8.08E-01,0.0926756
2.65E+03,6.48E+00,8.02E+00,8.08E-01,0.0926971
2.66E+03,6.66E+00,8.25E+00,8.08E-01,0.0927021
2.66E+03,6.80E+00,8.43E+00,8.07E-01,0.0929434
2.66E+03,6.88E+00,8.52E+00,8.07E-01,0.0929458
2.67E+03,6.89E+00,8.54E+00,8.07E-01,0.0932246
2.67E+03,6.88E+00,8.53E+00,8.07E-01,0.0932249
2.67E+03,6.87E+00,8.52E+00,8.07E-01,0.0933226
2.68E+03,6.86E+00,8.51E+00,8.06E-01,0.0934156
2.68E+03,6.85E+00,8.49E+00,8.06E-01,0.0934236
2.68E+03,6.83E+00,8.48E+00,8.06E-01,0.0935006
2.69E+03,6.82E+00,8.46E+00,8.06E-01,0.0937289
2.69E+03,6.80E+00,8.44E+00,8.06E-01,0.0937032
2.70E+03,6.79E+00,8.42E+00,8.06E-01,0.09373
2.70E+03,6.77E+00,8.41E+00,8.05E-01,0.093947
2.70E+03,6.76E+00,8.39E+00,8.06E-01,0.0938959
2.71E+03,6.75E+00,8.37E+00,8.06E-01,0.0937554
2.71E+03,6.73E+00,8.35E+00,8.05E-01,0.0939738
2.71E+03,6.71E+00,8.33E+00,8.05E-01,0.0940855
2.72E+03,6.70E+00,8.32E+00,8.05E-01,0.0941379
2.72E+03,6.68E+00,8.30E+00,8.05E-01,0.0942821
2.72E+03,6.66E+00,8.28E+00,8.05E-01,0.0944643
2.73E+03,6.65E+00,8.26E+00,8.05E-01,0.0943737
2.73E+03,6.63E+00,8.25E+00,8.04E-01,0.0945256
2.73E+03,6.62E+00,8.23E+00,8.04E-01,0.0946548
2.74E+03,6.60E+00,8.21E+00,8.04E-01,0.0946846
2.74E+03,6.58E+00,8.19E+00,8.04E-01,0.0949243
2.74E+03,6.57E+00,8.17E+00,8.03E-01,0.0950351
2.75E+03,6.55E+00,8.16E+00,8.03E-01,0.0952962
2.75E+03,6.53E+00,8.14E+00,8.03E-01,0.0952975
2.75E+03,6.52E+00,8.12E+00,8.03E-01,0.0954689
2.76E+03,6.50E+00,8.10E+00,8.02E-01,0.0956055
2.76E+03,6.48E+00,8.08E+00,8.02E-01,0.0957714
2.76E+03,6.46E+00,8.06E+00,8.02E-01,0.0958449
2.77E+03,6.45E+00,8.04E+00,8.02E-01,0.0959676
2.77E+03,6.43E+00,8.02E+00,8.01E-01,0.0961932
2.77E+03,6.41E+00,8.00E+00,8.01E-01,0.0963727
2.78E+03,6.39E+00,7.98E+00,8.01E-01,0.0964908
2.78E+03,6.37E+00,7.96E+00,8.00E-01,0.0968633
2.78E+03,6.35E+00,7.94E+00,8.00E-01,0.0969823
2.79E+03,6.33E+00,7.92E+00,8.00E-01,0.0971788
2.79E+03,6.31E+00,7.90E+00,7.99E-01,0.0974545
2.79E+03,6.29E+00,7.88E+00,7.99E-01,0.0975932
2.80E+03,6.27E+00,7.86E+00,7.98E-01,0.0977636
2.80E+03,6.25E+00,7.84E+00,7.98E-01,0.0980809
2.80E+03,6.23E+00,7.82E+00,7.97E-01,0.0983435
2.81E+03,6.21E+00,7.79E+00,7.97E-01,0.09851737
2.81E+03,6.19E+00,7.77E+00,7.97E-01,0.0987947
2.81E+03,6.17E+00,7.75E+00,7.96E-01,0.0990299
2.82E+03,6.15E+00,7.73E+00,7.96E-01,0.09932534
2.82E+03,6.13E+00,7.71E+00,7.95E-01,0.09966964
2.82E+03,6.10E+00,7.68E+00,7.94E-01,0.100019
2.83E+03,6.08E+00,7.66E+00,7.93E-01,0.10047
2.83E+03,6.06E+00,7.64E+00,7.93E-01,0.100742
2.83E+03,6.03E+00,7.61E+00,7.93E-01,0.100971
2.84E+03,6.01E+00,7.58E+00,7.92E-01,0.101267
2.84E+03,5.97E+00,7.55E+00,7.91E-01,0.101749
2.84E+03,5.93E+00,7.51E+00,7.90E-01,0.102167
2.85E+03,5.89E+00,7.46E+00,7.90E-01,0.102447
2.85E+03,5.84E+00,7.41E+00,7.89E-01,0.103082
2.85E+03,5.81E+00,7.37E+00,7.88E-01,0.103289
2.86E+03,5.79E+00,7.36E+00,7.87E-01,0.103828
2.86E+03,5.78E+00,7.35E+00,7.87E-01,0.104243
2.86E+03,5.77E+00,7.34E+00,7.86E-01,0.104644
2.87E+03,5.75E+00,7.32E+00,7.85E-01,0.105164
2.87E+03,5.72E+00,7.30E+00,7.84E-01,0.10575
2.87E+03,5.70E+00,7.28E+00,7.83E-01,0.106207
2.88E+03,5.68E+00,7.26E+00,7.82E-01,0.10684
2.88E+03,5.66E+00,7.24E+00,7.81E-01,0.107372
2.88E+03,5.63E+00,7.22E+00,7.80E-01,0.107977
2.89E+03,5.61E+00,7.20E+00,7.79E-01,0.108559
2.89E+03,5.57E+00,7.17E+00,7.78E-01,0.109252
2.89E+03,5.54E+00,7.14E+00,7.76E-01,0.109969
2.90E+03,5.51E+00,7.10E+00,7.75E-01,0.1106144
2.90E+03,5.47E+00,7.07E+00,7.74E-01,0.1113
2.90E+03,5.43E+00,7.03E+00,7.73E-01,0.11187
2.91E+03,5.40E+00,6.99E+00,7.72E-01,0.112624
2.91E+03,5.35E+00,6.95E+00,7.70E-01,0.113529
2.91E+03,5.30E+00,6.90E+00,7.69E-01,0.114308
2.92E+03,5.25E+00,6.85E+00,7.67E-01,0.115086
2.92E+03,5.21E+00,6.80E+00,7.66E-01,0.115927
2.92E+03,5.16E+00,6.76E+00,7.64E-01,0.117012
2.93E+03,5.14E+00,6.74E+00,7.62E-01,0.117819
2.93E+03,5.12E+00,6.73E+00,7.61E-01,0.118813
2.93E+03,5.11E+00,6.73E+00,7.59E-01,0.119745
2.94E+03,5.09E+00,6.73E+00,7.57E-01,0.120935
2.94E+03,5.08E+00,6.73E+00,7.55E-01,0.122023
2.94E+03,5.06E+00,6.73E+00,7.53E-01,0.123374
2.95E+03,5.03E+00,6.70E+00,7.51E-01,0.124377
2.95E+03,5.00E+00,6.67E+00,7.49E-01,0.125534
2.95E+03,4.95E+00,6.64E+00,7.46E-01,0.127044
2.96E+03,4.91E+00,6.60E+00,7.44E-01,0.128497
2.96E+03,4.88E+00,6.58E+00,7.41E-01,0.130011
2.97E+03,4.85E+00,6.57E+00,7.39E-01,0.131446
2.97E+03,4.85E+00,6.57E+00,7.37E-01,0.132427
2.97E+03,4.84E+00,6.59E+00,7.35E-01,0.133714
2.98E+03,4.83E+00,6.59E+00,7.33E-01,0.13508
2.98E+03,4.81E+00,6.58E+00,7.30E-01,0.136652
2.98E+03,4.78E+00,6.58E+00,7.27E-01,0.138334
2.99E+03,4.76E+00,6.57E+00,7.25E-01,0.139846
2.99E+03,4.73E+00,6.55E+00,7.22E-01,0.1416088
2.99E+03,4.70E+00,6.54E+00,7.19E-01,0.143361
3.00E+03,4.66E+00,6.52E+00,7.15E-01,0.145493
3.00E+03,4.63E+00,6.50E+00,7.12E-01,0.147307
3.00E+03,4.59E+00,6.48E+00,7.09E-01,0.149362
3.01E+03,4.56E+00,6.46E+00,7.06E-01,0.151487
3.01E+03,4.52E+00,6.43E+00,7.02E-01,0.1536807
3.01E+03,4.47E+00,6.41E+00,6.98E-01,0.156156
3.02E+03,4.43E+00,6.37E+00,6.95E-01,0.158144
3.02E+03,4.40E+00,6.36E+00,6.91E-01,0.160393
3.02E+03,4.36E+00,6.35E+00,6.87E-01,0.163054
3.03E+03,4.32E+00,6.33E+00,6.83E-01,0.16555
3.03E+03,4.28E+00,6.31E+00,6.79E-01,0.168273
3.03E+03,4.24E+00,6.29E+00,6.74E-01,0.171246
3.04E+03,4.20E+00,6.27E+00,6.70E-01,0.173664
3.04E+03,4.16E+00,6.25E+00,6.66E-01,0.176516
3.04E+03,4.12E+00,6.23E+00,6.62E-01,0.179437
3.05E+03,4.08E+00,6.21E+00,6.57E-01,0.182648
3.05E+03,4.03E+00,6.19E+00,6.52E-01,0.185991
3.05E+03,3.99E+00,6.17E+00,6.47E-01,0.189004
3.06E+03,3.94E+00,6.15E+00,6.42E-01,0.1927286
3.06E+03,3.90E+00,6.13E+00,6.37E-01,0.195989
3.06E+03,3.86E+00,6.11E+00,6.32E-01,0.199584
3.07E+03,3.81E+00,6.09E+00,6.26E-01,0.203296
3.07E+03,3.77E+00,6.08E+00,6.21E-01,0.206799
3.07E+03,3.73E+00,6.06E+00,6.16E-01,0.210682
3.08E+03,3.68E+00,6.04E+00,6.10E-01,0.214776
3.08E+03,3.64E+00,6.02E+00,6.04E-01,0.219127
3.08E+03,3.59E+00,6.00E+00,5.98E-01,0.223147
3.09E+03,3.54E+00,5.98E+00,5.92E-01,0.227334
3.09E+03,3.50E+00,5.97E+00,5.87E-01,0.231433
3.09E+03,3.45E+00,5.95E+00,5.81E-01,0.23611
3.10E+03,3.40E+00,5.93E+00,5.74E-01,0.240986
3.10E+03,3.36E+00,5.92E+00,5.68E-01,0.245658
3.10E+03,3.31E+00,5.90E+00,5.62E-01,0.250395
3.11E+03,3.27E+00,5.88E+00,5.56E-01,0.255109
3.11E+03,3.22E+00,5.86E+00,5.50E-01,0.25989
3.11E+03,3.17E+00,5.84E+00,5.43E-01,0.265114
3.12E+03,3.12E+00,5.82E+00,5.36E-01,0.270554
3.12E+03,3.08E+00,5.80E+00,5.30E-01,0.275562
3.12E+03,3.02E+00,5.78E+00,5.24E-01,0.281009
3.13E+03,2.99E+00,5.77E+00,5.18E-01,0.286024
3.13E+03,2.94E+00,5.75E+00,5.11E-01,0.291273
3.13E+03,2.89E+00,5.73E+00,5.05E-01,0.296817
3.14E+03,2.85E+00,5.72E+00,4.99E-01,0.301969
3.14E+03,2.81E+00,5.70E+00,4.93E-01,0.307593
3.14E+03,2.76E+00,5.68E+00,4.86E-01,0.31304
3.15E+03,2.72E+00,5.66E+00,4.80E-01,0.318475
3.15E+03,2.68E+00,5.64E+00,4.74E-01,0.323975
3.15E+03,2.63E+00,5.63E+00,4.68E-01,0.32952
3.16E+03,2.60E+00,5.61E+00,4.63E-01,0.334773
3.16E+03,2.55E+00,5.59E+00,4.57E-01,0.340235
3.16E+03,2.52E+00,5.58E+00,4.51E-01,0.345533
3.17E+03,2.48E+00,5.56E+00,4.46E-01,0.350744
3.17E+03,2.44E+00,5.54E+00,4.41E-01,0.355741
3.17E+03,2.41E+00,5.53E+00,4.36E-01,0.360798
3.18E+03,2.37E+00,5.51E+00,4.30E-01,0.366122
3.18E+03,2.34E+00,5.50E+00,4.26E-01,0.370778
3.18E+03,2.31E+00,5.48E+00,4.22E-01,0.375159
3.19E+03,2.28E+00,5.47E+00,4.17E-01,0.379447
3.19E+03,2.26E+00,5.46E+00,4.13E-01,0.383827
3.19E+03,2.23E+00,5.45E+00,4.10E-01,0.387732
3.20E+03,2.20E+00,5.43E+00,4.05E-01,0.392092
3.20E+03,2.19E+00,5.43E+00,4.03E-01,0.395023
3.20E+03,2.16E+00,5.42E+00,3.99E-01,0.398773
3.21E+03,2.14E+00,5.41E+00,3.96E-01,0.402462
3.21E+03,2.13E+00,5.40E+00,3.93E-01,0.405144
3.21E+03,2.11E+00,5.40E+00,3.91E-01,0.40785
3.22E+03,2.10E+00,5.39E+00,3.89E-01,0.41022
3.22E+03,2.08E+00,5.39E+00,3.87E-01,0.412399
3.22E+03,2.07E+00,5.38E+00,3.85E-01,0.414483
3.23E+03,2.06E+00,5.38E+00,3.83E-01,0.416383
3.23E+03,2.05E+00,5.38E+00,3.82E-01,0.417957
3.24E+03,2.05E+00,5.38E+00,3.81E-01,0.419311
3.24E+03,2.04E+00,5.38E+00,3.80E-01,0.420479
3.24E+03,2.04E+00,5.38E+00,3.79E-01,0.421529
3.25E+03,2.03E+00,5.38E+00,3.78E-01,0.42269
3.25E+03,2.03E+00,5.38E+00,3.77E-01,0.423122
3.25E+03,2.03E+00,5.38E+00,3.77E-01,0.423502
3.26E+03,2.03E+00,5.39E+00,3.77E-01,0.423901
3.26E+03,2.03E+00,5.39E+00,3.77E-01,0.424132
3.26E+03,2.03E+00,5.40E+00,3.76E-01,0.424529
3.27E+03,2.04E+00,5.41E+00,3.76E-01,0.424596
3.27E+03,2.04E+00,5.42E+00,3.76E-01,0.424298
3.27E+03,2.04E+00,5.43E+00,3.76E-01,0.424288
3.28E+03,2.05E+00,5.43E+00,3.76E-01,0.424407
3.28E+03,2.05E+00,5.45E+00,3.77E-01,0.424224
3.28E+03,2.06E+00,5.45E+00,3.77E-01,0.4237
3.29E+03,2.06E+00,5.46E+00,3.77E-01,0.423887
3.29E+03,2.06E+00,5.47E+00,3.77E-01,0.423866
3.29E+03,2.06E+00,5.48E+00,3.77E-01,0.423881
3.30E+03,2.07E+00,5.48E+00,3.77E-01,0.423337
3.30E+03,2.07E+00,5.49E+00,3.77E-01,0.423244
3.30E+03,2.08E+00,5.50E+00,3.78E-01,0.422818
3.31E+03,2.08E+00,5.50E+00,3.78E-01,0.422705
3.31E+03,2.08E+00,5.51E+00,3.78E-01,0.423002
3.31E+03,2.08E+00,5.51E+00,3.78E-01,0.422793
3.32E+03,2.09E+00,5.52E+00,3.78E-01,0.422199
3.32E+03,2.09E+00,5.52E+00,3.78E-01,0.42196
3.32E+03,2.09E+00,5.52E+00,3.78E-01,0.421967
3.33E+03,2.09E+00,5.53E+00,3.79E-01,0.421734
3.33E+03,2.10E+00,5.53E+00,3.79E-01,0.421151
3.33E+03,2.10E+00,5.53E+00,3.80E-01,0.420784
3.34E+03,2.10E+00,5.53E+00,3.80E-01,0.42055
3.34E+03,2.11E+00,5.54E+00,3.80E-01,0.419715
3.34E+03,2.11E+00,5.54E+00,3.81E-01,0.418788
3.35E+03,2.12E+00,5.54E+00,3.82E-01,0.417852
3.35E+03,2.12E+00,5.53E+00,3.83E-01,0.417065
3.35E+03,2.12E+00,5.53E+00,3.84E-01,0.416151
3.36E+03,2.13E+00,5.53E+00,3.84E-01,0.415134
3.36E+03,2.13E+00,5.53E+00,3.86E-01,0.413818
3.36E+03,2.14E+00,5.52E+00,3.87E-01,0.412499
3.37E+03,2.14E+00,5.51E+00,3.88E-01,0.411133
3.37E+03,2.15E+00,5.51E+00,3.90E-01,0.408634
3.37E+03,2.16E+00,5.51E+00,3.92E-01,0.406593
3.38E+03,2.17E+00,5.50E+00,3.94E-01,0.404665
3.38E+03,2.18E+00,5.49E+00,3.96E-01,0.402385
3.38E+03,2.18E+00,5.48E+00,3.98E-01,0.400023
3.39E+03,2.19E+00,5.48E+00,4.01E-01,0.397211
3.39E+03,2.20E+00,5.47E+00,4.03E-01,0.394679
3.39E+03,2.21E+00,5.46E+00,4.06E-01,0.391878
3.40E+03,2.23E+00,5.45E+00,4.09E-01,0.388626
3.40E+03,2.24E+00,5.44E+00,4.12E-01,0.385099
3.40E+03,2.25E+00,5.43E+00,4.15E-01,0.381547
3.41E+03,2.27E+00,5.42E+00,4.19E-01,0.377894
3.41E+03,2.28E+00,5.40E+00,4.22E-01,0.374212
3.41E+03,2.30E+00,5.39E+00,4.27E-01,0.370052
3.42E+03,2.31E+00,5.38E+00,4.30E-01,0.366483
3.42E+03,2.32E+00,5.36E+00,4.33E-01,0.363574
3.42E+03,2.34E+00,5.35E+00,4.38E-01,0.358755
3.43E+03,2.36E+00,5.34E+00,4.42E-01,0.354878
3.43E+03,2.38E+00,5.33E+00,4.46E-01,0.350791
3.43E+03,2.39E+00,5.31E+00,4.50E-01,0.346484
3.44E+03,2.41E+00,5.30E+00,4.55E-01,0.342262
3.44E+03,2.42E+00,5.29E+00,4.59E-01,0.338495
3.44E+03,2.44E+00,5.27E+00,4.62E-01,0.335161
3.45E+03,2.45E+00,5.25E+00,4.66E-01,0.331543
3.45E+03,2.49E+00,5.26E+00,4.73E-01,0.3252414
3.45E+03,2.50E+00,5.24E+00,4.77E-01,0.321378
3.46E+03,2.52E+00,5.23E+00,4.81E-01,0.31774
3.46E+03,2.53E+00,5.22E+00,4.85E-01,0.314125
3.46E+03,2.55E+00,5.21E+00,4.90E-01,0.309735
3.47E+03,2.57E+00,5.20E+00,4.94E-01,0.305933
3.47E+03,2.59E+00,5.19E+00,4.99E-01,0.301825
3.47E+03,2.61E+00,5.18E+00,5.04E-01,0.297831
3.48E+03,2.63E+00,5.17E+00,5.08E-01,0.293939
3.48E+03,2.63E+00,5.15E+00,5.11E-01,0.291475
3.48E+03,2.66E+00,5.14E+00,5.17E-01,0.28669
3.49E+03,2.67E+00,5.13E+00,5.21E-01,0.283051
3.49E+03,2.70E+00,5.13E+00,5.27E-01,0.278343
3.49E+03,2.71E+00,5.11E+00,5.31E-01,0.275022
3.50E+03,2.73E+00,5.10E+00,5.36E-01,0.271068
3.50E+03,2.73E+00,5.08E+00,5.38E-01,0.269485
3.51E+03,2.76E+00,5.08E+00,5.43E-01,0.265066
3.51E+03,2.78E+00,5.07E+00,5.48E-01,0.261406
3.51E+03,2.80E+00,5.06E+00,5.54E-01,0.256759
3.52E+03,2.83E+00,5.06E+00,5.59E-01,0.252222
3.52E+03,2.84E+00,5.05E+00,5.63E-01,0.249115
3.52E+03,2.84E+00,5.03E+00,5.65E-01,0.247577
3.53E+03,2.85E+00,5.01E+00,5.69E-01,0.245202
3.53E+03,2.86E+00,5.00E+00,5.73E-01,0.241525
3.53E+03,2.91E+00,5.00E+00,5.82E-01,0.235177
3.54E+03,2.92E+00,4.98E+00,5.86E-01,0.232323
3.54E+03,2.94E+00,4.97E+00,5.92E-01,0.227915
3.54E+03,2.94E+00,4.95E+00,5.95E-01,0.225578
3.55E+03,2.91E+00,4.90E+00,5.93E-01,0.226758
3.55E+03,2.96E+00,4.90E+00,6.03E-01,0.219848
3.55E+03,2.96E+00,4.88E+00,6.06E-01,0.217626
3.56E+03,3.00E+00,4.88E+00,6.15E-01,0.211464
3.56E+03,2.99E+00,4.85E+00,6.18E-01,0.209263
3.56E+03,2.98E+00,4.82E+00,6.20E-01,0.20789
3.57E+03,2.88E+00,4.73E+00,6.09E-01,0.215633
3.57E+03,2.93E+00,4.73E+00,6.20E-01,0.207486
3.57E+03,3.03E+00,4.76E+00,6.36E-01,0.196258
3.58E+03,3.03E+00,4.73E+00,6.40E-01,0.19402
3.58E+03,3.03E+00,4.70E+00,6.44E-01,0.191203
3.58E+03,3.03E+00,4.68E+00,6.47E-01,0.189028
3.59E+03,2.90E+00,4.58E+00,6.33E-01,0.198528
3.59E+03,2.93E+00,4.57E+00,6.41E-01,0.192905
3.59E+03,3.00E+00,4.59E+00,6.53E-01,0.184872
3.60E+03,2.99E+00,4.57E+00,6.55E-01,0.183755
3.60E+03,3.02E+00,4.56E+00,6.62E-01,0.17937
3.60E+03,3.06E+00,4.56E+00,6.70E-01,0.173959
3.61E+03,3.00E+00,4.51E+00,6.65E-01,0.177458
3.61E+03,2.93E+00,4.44E+00,6.59E-01,0.180998
3.61E+03,2.97E+00,4.45E+00,6.67E-01,0.175881
3.62E+03,3.00E+00,4.45E+00,6.73E-01,0.172128
3.62E+03,2.92E+00,4.39E+00,6.66E-01,0.176419
3.62E+03,3.10E+00,4.48E+00,6.93E-01,0.159191
3.63E+03,2.95E+00,4.37E+00,6.75E-01,0.170836
3.63E+03,2.81E+00,4.26E+00,6.59E-01,0.180795
3.63E+03,3.10E+00,4.42E+00,7.01E-01,0.154053
3.64E+03,3.17E+00,4.44E+00,7.14E-01,0.14637
3.64E+03,3.20E+00,4.43E+00,7.21E-01,0.142329
3.64E+03,3.20E+00,4.42E+00,7.23E-01,0.140566
3.65E+03,2.96E+00,4.27E+00,6.92E-01,0.159895
3.65E+03,2.85E+00,4.19E+00,6.81E-01,0.167025
3.65E+03,3.18E+00,4.36E+00,7.30E-01,0.136762
3.66E+03,3.14E+00,4.32E+00,7.26E-01,0.138777
3.66E+03,3.32E+00,4.41E+00,7.54E-01,0.122742
3.66E+03,3.35E+00,4.41E+00,7.60E-01,0.11907
3.67E+03,3.26E+00,4.35E+00,7.49E-01,0.125369
3.67E+03,3.01E+00,4.19E+00,7.19E-01,0.143123
3.67E+03,3.05E+00,4.21E+00,7.24E-01,0.140225
3.68E+03,3.11E+00,4.23E+00,7.35E-01,0.133802
3.68E+03,3.39E+00,4.39E+00,7.73E-01,0.111788
3.68E+03,3.45E+00,4.41E+00,7.82E-01,0.106721
3.69E+03,3.17E+00,4.24E+00,7.47E-01,0.126616
3.69E+03,3.20E+00,4.28E+00,7.50E-01,0.125138
3.69E+03,3.47E+00,4.42E+00,7.85E-01,0.105143
3.70E+03,3.51E+00,4.44E+00,7.90E-01,0.102192
3.70E+03,3.41E+00,4.40E+00,7.77E-01,0.109792
3.70E+03,3.51E+00,4.44E+00,7.89E-01,0.102818
3.71E+03,3.46E+00,4.43E+00,7.82E-01,0.106611
3.71E+03,3.24E+00,4.31E+00,7.52E-01,0.123753
3.71E+03,3.48E+00,4.43E+00,7.85E-01,0.104994
3.72E+03,3.58E+00,4.50E+00,7.95E-01,0.0996137
3.72E+03,3.51E+00,4.48E+00,7.84E-01,0.105898
3.72E+03,3.50E+00,4.49E+00,7.79E-01,0.108564
3.73E+03,3.55E+00,4.53E+00,7.85E-01,0.105239
3.73E+03,3.42E+00,4.46E+00,7.65E-01,0.116083
3.73E+03,3.28E+00,4.41E+00,7.44E-01,0.128387
3.74E+03,3.47E+00,4.51E+00,7.70E-01,0.113462
3.74E+03,3.58E+00,4.58E+00,7.81E-01,0.107342
3.74E+03,3.10E+00,4.30E+00,7.21E-01,0.142151
3.75E+03,3.38E+00,4.49E+00,7.52E-01,0.123505
3.75E+03,3.24E+00,4.41E+00,7.35E-01,0.133855
3.75E+03,3.71E+00,4.70E+00,7.90E-01,0.102442
3.76E+03,3.73E+00,4.74E+00,7.88E-01,0.103418
3.76E+03,3.85E+00,4.81E+00,8.01E-01,0.0965813
3.76E+03,3.84E+00,4.82E+00,7.96E-01,0.0988646
3.77E+03,3.81E+00,4.82E+00,7.91E-01,0.101695
3.77E+03,3.91E+00,4.88E+00,8.01E-01,0.09637921
3.78E+03,4.02E+00,4.95E+00,8.13E-01,0.0900617
3.78E+03,3.92E+00,4.92E+00,7.98E-01,0.0982457
3.78E+03,4.01E+00,4.97E+00,8.07E-01,0.0933769
3.79E+03,4.03E+00,5.00E+00,8.07E-01,0.0932075
3.79E+03,4.10E+00,5.04E+00,8.14E-01,0.0896234
3.79E+03,4.12E+00,5.06E+00,8.13E-01,0.0897233
3.80E+03,4.00E+00,5.02E+00,7.97E-01,0.0985529
3.80E+03,3.94E+00,4.99E+00,7.89E-01,0.102729
3.80E+03,3.72E+00,4.87E+00,7.64E-01,0.117012
3.81E+03,3.92E+00,5.00E+00,7.85E-01,0.105367
3.81E+03,4.03E+00,5.06E+00,7.97E-01,0.0985169
3.81E+03,4.18E+00,5.15E+00,8.11E-01,0.0907291
3.82E+03,3.79E+00,4.93E+00,7.68E-01,0.114448
3.82E+03,3.92E+00,5.04E+00,7.79E-01,0.108689
3.82E+03,3.87E+00,5.02E+00,7.71E-01,0.112767
3.83E+03,4.13E+00,5.16E+00,8.00E-01,0.0967007
3.83E+03,4.16E+00,5.18E+00,8.02E-01,0.095559
3.83E+03,4.05E+00,5.13E+00,7.89E-01,0.102887
3.84E+03,3.88E+00,5.04E+00,7.71E-01,0.112889
3.84E+03,3.84E+00,5.02E+00,7.66E-01,0.115764
3.84E+03,4.08E+00,5.17E+00,7.90E-01,0.102449
3.85E+03,4.24E+00,5.24E+00,8.08E-01,0.0925074
3.85E+03,4.15E+00,5.20E+00,7.99E-01,0.0976228
3.85E+03,3.40E+00,4.77E+00,7.14E-01,0.146509
3.86E+03,3.89E+00,5.05E+00,7.71E-01,0.112979
3.86E+03,4.23E+00,5.25E+00,8.05E-01,0.0940098
3.86E+03,4.08E+00,5.18E+00,7.87E-01,0.104009
3.87E+03,4.08E+00,5.18E+00,7.88E-01,0.10322
3.87E+03,3.89E+00,5.07E+00,7.67E-01,0.115135
3.87E+03,4.11E+00,5.20E+00,7.91E-01,0.101639
3.88E+03,4.25E+00,5.26E+00,8.07E-01,0.0932217
3.88E+03,4.10E+00,5.20E+00,7.89E-01,0.102901
3.88E+03,4.15E+00,5.22E+00,7.95E-01,0.0995048
3.89E+03,4.05E+00,5.16E+00,7.85E-01,0.104874
3.89E+03,4.15E+00,5.21E+00,7.96E-01,0.0991315
3.89E+03,4.19E+00,5.23E+00,8.00E-01,0.0966546
3.90E+03,4.25E+00,5.27E+00,8.07E-01,0.0933281
3.90E+03,4.01E+00,5.15E+00,7.78E-01,0.108773
3.90E+03,3.96E+00,5.12E+00,7.74E-01,0.111434
3.91E+03,4.21E+00,5.24E+00,8.03E-01,0.095108
3.91E+03,4.32E+00,5.29E+00,8.16E-01,0.0883471
3.91E+03,4.30E+00,5.28E+00,8.14E-01,0.0893801
3.92E+03,4.17E+00,5.22E+00,8.00E-01,0.0971502
3.92E+03,4.22E+00,5.24E+00,8.05E-01,0.094068
3.92E+03,4.23E+00,5.24E+00,8.07E-01,0.0931759
3.93E+03,4.26E+00,5.25E+00,8.11E-01,0.0911208
3.93E+03,4.22E+00,5.23E+00,8.06E-01,0.0936259
3.93E+03,4.22E+00,5.23E+00,8.08E-01,0.0927659
3.94E+03,4.28E+00,5.25E+00,8.15E-01,0.08890286
3.94E+03,4.25E+00,5.24E+00,8.12E-01,0.0905795
3.94E+03,4.22E+00,5.22E+00,8.09E-01,0.0922057
3.95E+03,4.22E+00,5.22E+00,8.10E-01,0.0916735
3.95E+03,4.22E+00,5.21E+00,8.11E-01,0.0912322
3.95E+03,4.25E+00,5.22E+00,8.15E-01,0.0891074
3.96E+03,4.24E+00,5.21E+00,8.15E-01,0.08910816
3.96E+03,4.23E+00,5.20E+00,8.13E-01,0.08970493
3.96E+03,4.23E+00,5.20E+00,8.15E-01,0.0889341
3.97E+03,4.23E+00,5.19E+00,8.15E-01,0.0887024
3.97E+03,4.22E+00,5.18E+00,8.15E-01,0.08908584
3.97E+03,4.20E+00,5.16E+00,8.14E-01,0.089358
3.98E+03,4.21E+00,5.16E+00,8.16E-01,0.0885627
3.98E+03,4.20E+00,5.15E+00,8.16E-01,0.0885468
3.98E+03,4.19E+00,5.14E+00,8.16E-01,0.0883783
3.99E+03,4.18E+00,5.13E+00,8.16E-01,0.0883967
3.99E+03,4.17E+00,5.12E+00,8.15E-01,0.0886845
3.99E+03,4.16E+00,5.11E+00,8.15E-01,0.0887071
4.00E+03,4.16E+00,5.10E+00,8.16E-01,0.0882901
4.00E+03,4.15E+00,5.09E+00,8.16E-01,0.0881546